timestamp,accel_x,accel_y,accel_z,gyro_x,gyro_y,gyro_z,label
0.0,0.2335698820590619,0.260178237643146,0.9348209099364234,-31.158222257878535,-41.60509541345159,-18.398833974112947,1.0
0.02,-0.1618843197109263,0.20915834015807366,0.9955730560504713,-29.29552180402942,-58.03583770589165,36.177975806743355,1.0
0.04,-0.012627781815071605,0.13391432681815313,1.0041602673804266,24.698144401938183,20.928143604228477,34.856992045046546,1.0
0.06,-0.25794746285577835,-0.0944809423907717,0.8478854040002181,-11.058278574803953,8.469148053651981,5.286771918548844,1.0
0.08,-0.08298263579077389,-0.30511363800279406,1.1194758827170768,15.784791298453989,10.565176095568745,-18.227888738494812,1.0
0.1,-0.06184558595228573,-0.09408161347705692,1.1450300285358888,-33.6813479286049,31.20316304365221,16.851370260948592,1.0
0.12,0.020417537912122627,0.3416764804345673,1.0923324550591116,2.832547669596415,-13.348223281357729,19.63978726683948,1.0
0.14,0.12418697080680245,-0.013597215855893886,0.9546972923331674,-9.902289421446792,5.933057309088146,6.210813570492278,1.0
0.16,-0.2921731052595904,-0.20896424174857492,0.8807752832398101,-50.35330510967365,40.182207122634495,53.4851871703099,1.0
0.18,0.18945878006712805,-0.2724345515970423,0.9768178855594406,6.753379164816565,25.32234170826105,-29.378670634277864,1.0
0.2,0.25798676445613145,0.12039738869342742,1.1786752093559427,30.922656426340595,33.067501178469215,-9.916717723785178,1.0
0.22,0.11081486512058308,0.0235401535361017,0.8672221629570546,-25.516077235695224,47.680416526638844,-12.577839287386881,1.0
0.24,0.11638255001875675,-0.13570196384594252,0.8943412499377817,-46.39408770165413,15.834342143415167,9.919123191307824,1.0
0.26,-0.13234730985740314,0.006167138659839777,1.1419730038587552,-22.29150349136028,-16.939027536059672,0.8048244244945044,1.0
0.28,0.2589115169069877,0.1734013993950396,0.9490800302889859,39.59579606256686,44.14956069608638,32.79417941226937,1.0
0.3,0.03417412074063637,0.24151716633947257,0.8859111578665814,-21.199295607820922,-43.3777967336774,19.866444396044166,1.0
0.32,0.10806470961579746,-0.269287785888263,0.8955296450731405,12.907078640782341,19.530365515276657,29.28112663398297,1.0
0.34,-0.06284760940348155,0.1627544686680148,0.844664751690896,18.073063129774376,26.77591101933819,-37.34040259446223,1.0
0.36,-0.1190761771154085,0.23023676050602726,1.1690778040763783,-4.116785693056668,43.34898944823289,30.93655152519393,1.0
0.38,-0.22092634744620426,-0.2090011978871167,1.1254338774258017,-5.117856588454604,38.011864308994305,37.6142995715999,1.0
0.4,0.006677110456893152,-0.035487806437459204,0.8836481115325024,-15.142578697823504,11.771569404244147,-33.924752997150726,1.0
0.42,0.06649256872070498,0.09512960688594495,0.9099916316542102,7.105606772529319,-34.62014413258458,33.58693228976382,1.0
0.44,0.2223822896335312,0.1887317544801959,0.9093028482360161,43.82783528923425,-11.167116709337943,7.798502284120244,1.0
0.46,-0.10177835706481285,0.02841624974868818,1.062428551938965,-52.56595687462467,50.812838754363256,-36.17650841614236,1.0
0.48,-0.12259653947698457,-0.21592438611063985,1.101102484335603,-39.74603539406115,-51.50448064377279,-28.834718594555518,1.0
0.5,-0.08605764145041492,-0.2000623163465276,0.9904542496510509,46.98844396203574,24.94061266452932,-25.9294409698308,1.0
0.52,-0.2095142893177276,0.17903703234474097,0.9617866470481992,30.034685874542113,8.85127005940977,-30.499179089225777,1.0
0.54,0.13014883317142412,-0.31867778825569704,0.8479174759975967,1.5448619193481523,36.60487942433334,50.71064171213015,1.0
0.56,-0.10754762506271981,-0.08937576597719082,0.969001540917938,7.468770468397153,-33.64767011629619,23.098666632927394,1.0
0.58,0.10950105311651273,0.2319262344990752,0.9121712450903792,46.28606122701136,-51.99376629797908,36.23381842320747,1.0
0.6,0.031097592778032007,0.04701806121422762,1.1180655409071545,53.11763232481407,5.238279648005641,37.240445925861366,1.0
0.62,0.21980189323724353,0.20414427120407153,1.005305443091662,-1.4838013693087198,-26.71638261422345,-27.555624124967533,1.0
0.64,0.21837907174643112,0.19849118385699208,0.7615270622569172,-28.118568310296254,-33.48138247820279,-37.62756406322812,1.0
0.66,0.0022318643348136005,0.25639208398051533,1.1921153704827498,-53.501914231472696,30.818208119006187,-10.81635322094627,1.0
0.68,-0.3449880502690633,0.3323377192631778,1.1466859910697589,-34.9129382347918,1.1903058636510373,4.781133414594071,1.0
0.7,0.11790726038876348,-0.12944226084176766,0.9365828626074747,-34.24906460091209,-34.87356843964806,39.84305850658282,1.0
0.72,0.1560176225745968,0.20371231785243152,0.9540629497406043,32.55476247619688,33.80425253215216,-26.549703967338864,1.0
0.74,-0.20122977843212536,0.049656030050967054,1.0651388966117272,12.735697481573858,29.466380195586282,27.68474943029674,1.0
0.76,0.21370230313947008,0.19636212255291438,1.1705913430202584,-1.5226950262407595,5.785692804072225,-52.439819789576525,1.0
0.78,-0.2798652340180271,-0.18496782412694737,1.1050182237609614,-23.320609781418675,-36.392504200303094,-26.246990430424276,1.0
0.8,0.10578555973752762,0.12694693395270543,0.9995108024969663,-3.4829799372304873,12.605492210406089,52.49356076934163,1.0
0.82,-0.1602076008152805,-0.20564163502062704,0.9158769171197849,7.628981370988807,-33.385462865579825,47.40215841050144,1.0
0.84,-0.2904921846939379,-0.19661930373649472,1.150179058224255,14.331704100061891,26.01605494817747,-33.84877180449638,1.0
0.86,0.145146167871993,0.06093978424329415,0.8708283127884751,39.67184219730167,-2.423454548885779,43.76461821748088,1.0
0.88,-0.297593932062287,0.25342918894794764,0.8538045667066868,-35.868594562523505,-7.493893988318893,20.070112828704566,1.0
0.9,0.2045829401403738,0.28807395581528356,1.1531704752424456,38.4411169028574,18.911506739873477,-40.502233566235084,1.0
0.92,0.12921022480338779,0.3421808767546959,0.8766164563485239,39.06447667180309,29.029697566983454,22.713332751078244,1.0
0.94,0.07998034924711825,-0.06224451772130944,1.022815916464282,-11.139034325760756,-45.911998373405176,-16.01554828461575,1.0
0.96,0.07312628354917192,-0.30446739730821964,0.7840122275107899,-40.613218293977276,26.821436462913034,21.760704892736303,1.0
0.98,-0.1949725236672116,-0.07909158671597599,1.0847807873306305,25.89410143183135,-20.408203093872526,46.22593497490969,1.0
1.0,0.23663620837246835,0.261622745956177,1.118982306664404,-19.972961063290626,24.037044147349754,-17.161255306098344,1.0
1.02,0.08973594660448506,-0.2990658572219358,0.9940950535347095,36.59144172916248,18.06082827484708,-14.837884297848287,1.0
1.04,-0.1231921136410368,0.18545804344195094,1.0671439521088206,29.009332591803826,29.750938119280825,4.046358398340609,1.0
1.06,0.22344663369160578,-0.24595413899864813,1.1369230463231532,-11.748116714889267,34.46389508534402,53.24290345438358,1.0
1.08,0.20138108046445669,-0.27650051829883493,1.0891021012734186,27.357535448382656,7.393892535455452,-5.279785236008316,1.0
1.1,0.22466963731434594,0.29261123463413435,1.067269619046928,-1.7160893915816509,-52.01804422791106,-39.123801217422766,1.0
1.12,-0.2357528260822902,-0.18912061544401973,1.158944610303757,-11.670984932233608,-21.547859382909525,-43.72636007310239,1.0
1.14,-0.2802476706382266,-0.24027316402029103,0.9392674736181763,-42.302918459251515,11.067371475764942,-29.158304488879462,1.0
1.16,0.1160416490089133,-0.04430987911839965,0.9956972693485937,-19.694564775292925,-14.841263415500304,58.437502746725684,1.0
1.18,0.16031895938557061,-0.14704165420343676,1.1079291338211952,-2.641664331003836,21.095365553414645,39.47382080952796,1.0
1.2,0.2957650489493956,0.14820560627723411,1.250319412686957,26.84857138942959,18.19784115814482,-19.007237631852618,1.0
1.22,0.020851391027338233,0.11825118025379523,1.0305319019828043,26.77358473930449,24.853268918070746,-22.2458795357614,1.0
1.24,0.09871608478359889,0.27067750660012097,0.8818367144946578,7.441741733151423,-4.529472653067629,43.82067532824779,1.0
1.26,0.09045375826355126,-0.10684943557768264,0.969393251679896,37.51838315382285,-40.855864365952854,43.40430819096327,1.0
1.28,-0.0973484834429147,-0.12437121701830557,1.1163629795526862,-20.803389076533954,-21.919810677350153,-55.72233137066052,1.0
1.3,-0.07357864606345109,0.13780688125549362,0.9806645606142458,-34.55232345179672,-39.092446288998914,-31.852444871135052,1.0
1.32,0.2825567740535768,-0.09141944895113151,0.9037426860176186,-43.91034863354159,22.61847750863747,22.60147253180206,1.0
1.34,-0.3478419497365284,-0.023946782484170648,1.08383882750772,-26.95924554515979,-39.74190246014232,18.63745947205789,1.0
1.36,0.11950427299580524,0.16970431661904023,1.0095757770393523,21.449458581730045,40.95484404873083,29.261235018800903,1.0
1.38,0.06965573098195585,-0.25777426278590176,1.11180722556283,-21.906956412437324,20.684113671019816,34.598182039646304,1.0
1.4,-0.2984976328422399,-0.08314113049074355,1.096767482333396,-41.98274865649533,-25.40644093198547,25.820054067298013,1.0
1.42,0.0003054009854124018,-0.32606176177530616,0.9273764368196079,-37.863815135920696,-19.48778782209648,17.703158717882637,1.0
1.44,0.20574298606816221,0.25651016562013945,0.9509633438875359,15.226429604697351,-1.7833497707806263,10.714430045386093,1.0
1.46,0.08409974523634178,0.13307760346090977,1.0241337393611283,6.7148314846041215,7.9991063679859655,33.0632765367464,1.0
1.48,-0.18214891141006273,-0.15318629287713198,0.9626577284059363,26.106666234929264,-1.5212104331193306,-1.2256158801199084,1.0
1.5,-0.06410350976139337,0.1921007790714333,0.9849949758416316,-45.82831551865207,45.089400954884646,5.929274787536787,1.0
1.52,0.05673594336226352,-0.29702407042350837,1.047687056140509,-51.943390270296625,28.547410860754287,-51.231012951305296,1.0
1.54,-0.19865661016703975,0.22451177926790328,1.043976921279862,-4.334102447728182,-32.56472154716895,28.925477842254296,1.0
1.56,-0.03094865912279879,0.019223885694615965,0.7860098516216377,-28.114442772686694,29.65165667272486,23.088084021723503,1.0
1.58,-0.09952343499529218,0.2274121238426039,0.9713775649203482,9.5825468234303,-29.536987967092358,-57.630497489869384,1.0
1.6,0.27319868380909684,0.16580879340085303,0.8459185404998026,31.892349938880006,7.701051750190837,23.594795248642107,1.0
1.62,-0.068529763504412,-0.10473221182573923,1.0431778020560425,26.579496057926704,-30.032030215776587,39.15268227008014,1.0
1.64,0.27324318496923783,0.280902079019329,0.8866243887700461,25.070948377581605,8.138893704823635,-39.596069463024094,1.0
1.66,0.28134452841573043,-0.2766159263313353,1.0775460383895832,39.313202097412265,36.18647068614348,-24.9873134265823,1.0
1.68,-0.07755252332733938,0.18630256162713715,1.0458354851290383,38.6059542370968,-30.691162070474462,-45.23006110444401,1.0
1.7,0.08827712460233648,0.2745186315694916,1.2093182379809135,51.69328246664983,-10.824267702179139,-8.302865337733841,1.0
1.72,-0.23698950010653344,0.2508385476222587,1.1542606132212347,-10.07061608135188,35.85518087099018,30.634742602055557,1.0
1.74,0.16489318319266846,-0.0689749788017112,1.0182511570794468,-41.11537368479294,45.56822299552416,-21.47033317449349,1.0
1.76,-0.05423520038274597,0.24744581959338796,0.997621182999085,9.058128314345405,-59.07976321514475,31.346139913449733,1.0
1.78,0.22580330998734044,0.22008115363038622,1.061687747626132,9.19136646853815,-6.024134751227928,43.51345357454792,1.0
1.8,0.10651373463340175,-0.22307547277527393,1.2297583855397765,48.964361708723104,44.0164942634148,47.82629009630784,1.0
1.82,0.06254606240720638,0.0018972562854503924,0.9207749638980847,16.417519145349328,-2.48681250697701,-44.47713733854003,1.0
1.84,0.18546164080259442,-0.013732149196624188,0.8260564075853069,-34.263653896782834,42.404069214435566,14.763525323594095,1.0
1.86,-0.1340073866495737,0.30992623325790264,0.8303060388007496,-12.019875783807995,-38.234679764218214,-18.594355023098423,1.0
1.88,-0.33796102534875294,-0.071218343784363,0.8944987662091128,8.651791508084663,14.56217399417212,16.493018585074743,1.0
1.9,-0.03543415512703475,0.04703739684482017,0.9798788451217587,25.972497605056702,46.31540232619236,21.31040539303106,1.0
1.92,-0.18896746537955655,-0.021365586354585395,0.9805775735109877,-12.137295162102692,16.923177186028077,45.02553429240988,1.0
1.94,0.13527679965104783,0.11627610548734431,0.8483915052644649,-28.57426938619639,-32.25691339820053,-23.61291472544957,1.0
1.96,-0.07721361905277344,0.0281626141602124,0.9826937562859002,39.15786423849164,9.139217676802568,-38.104266411219584,1.0
1.98,0.05128243635006375,0.03572219089090457,0.9211704355684311,-27.39894776793816,-7.51069251741256,9.37458185591317,1.0
2.0,0.045897728206354675,-0.0904001237463592,1.011618431976174,37.30609313901355,23.728896471846497,30.988249175453927,1.0
2.02,0.02993503496666609,0.2831175324172318,1.0659848721919467,23.367164325352736,17.700914423555368,-2.438963359861579,1.0
2.04,0.030063597773732926,0.18196402162528014,1.0583730201453025,14.514703696368283,19.97047079815649,7.165855743153861,1.0
2.06,0.2029701880825311,-0.2632053113417629,1.0137663204911265,37.02682121389312,-5.496228016160962,-18.459760480574168,1.0
2.08,-0.27881293265392487,0.003198264871784238,1.1274925362551589,-30.129427347697135,-27.08444185155505,38.37325313629641,1.0
2.1,-0.09693550319917316,-0.17265467909395885,1.1574204357615696,-14.659258651802057,7.902369783787864,-22.544705421054676,1.0
2.12,0.19446628355770407,-0.23880055127900082,0.8088060300329143,10.957719020593387,-24.04064188813631,-35.11563301979738,1.0
2.14,-0.2903686592551026,-0.03096330329583047,1.1849965418143122,29.05320585916624,11.524348560031708,-30.89771376924878,1.0
2.16,-0.2828287542209839,-0.2298585407531392,0.892594557672228,-37.740410821992164,-26.04847039492977,-14.46932466215803,1.0
2.18,0.34471870287444173,-0.10345888193713464,1.074339649303061,-4.502447591875908,-17.8661274428747,-56.52551793988091,1.0
2.2,-0.1735041433108119,0.053621504121106944,1.0145409124084352,-37.80348584953852,-29.358339107214245,43.57584627017829,1.0
2.22,-0.047241576768845814,-0.3582819477504356,1.0421618623614148,-4.871257325406458,0.43529239776512796,-13.788570811523263,1.0
2.24,-0.18025511166728603,-0.20879068661228892,0.838959143046058,-19.56618789790234,-30.579502023571035,14.65891788805125,1.0
2.26,-0.1005414457950138,0.3640998239274083,1.194108975172749,5.7437697621595465,-50.93399781736396,16.73032844735917,1.0
2.28,0.021061613589369206,0.12237778646429454,0.8932182621277078,-45.06710818620443,24.750987139656623,41.43054901610354,1.0
2.3,0.21055845120612468,0.16715009161629582,1.1974761079610186,-26.308567889084966,45.504234501717995,-13.820132673796373,1.0
2.32,-0.0017629125905054416,-0.18031886267866998,1.025589577554039,3.769173789790372,16.74291593176543,3.068281732211255,1.0
2.34,-0.035932539926969986,0.27803429297629284,1.0700610161177766,-50.015046279051845,-37.79155376562236,-5.625059206052567,1.0
2.36,0.2576439382843351,-0.0034684497095498062,1.1625061820195048,-52.05416526192142,9.538358036285532,25.123226882929046,1.0
2.38,0.21428141126815578,-0.3118872763600734,1.0395602601339968,-12.134167873999479,-52.14337305885715,40.37004845502048,1.0
2.4,0.058112046046887716,-0.23103670876768723,1.105973852085893,-2.490459343513269,-33.29211148294518,48.08443088288988,1.0
2.42,-0.1873615218557549,0.0500033161294619,1.214633531111045,30.078879924302402,0.7845654577543684,-10.65553375803461,1.0
2.44,0.059643868591234855,0.24032809010129746,0.8267066300851548,-43.07395647626482,14.814973274638337,3.906666968860502,1.0
2.46,-0.11461004097253696,0.08766041134538263,0.8376259322050007,-49.974661138088884,-15.374173664482466,-40.83575510912021,1.0
2.48,0.16797026128857437,0.15614295318496066,0.7680930577987659,27.364860102485093,-15.942096150368847,-42.56930368057636,1.0
2.5,-0.22615111786231232,-0.1883684728624363,0.9891006501321272,9.508079861930698,-5.202863635024628,-22.24191194206291,1.0
2.52,0.13082786114031544,0.14953588252348635,0.7084804774349511,16.67107778179841,1.8828822187282488,-17.972486493128173,1.0
2.54,-0.03955135562508739,0.08781269573463754,0.8246682968551188,-17.929586261825172,-48.45074314553742,23.005841476853313,1.0
2.56,0.27455855559173487,-0.003348160624622898,1.0800892385365053,4.220724775863832,-27.686362788724235,-32.82049337045943,1.0
2.58,0.23611091275966373,0.15927438044147785,0.787294438935624,-45.32441241320704,31.810167303051422,-31.59704081591002,1.0
2.6,-0.0672300637990486,0.11441498865492496,0.8897787334966615,37.72292893456717,49.366089255689815,18.321625274750946,1.0
2.62,-0.12542588266690208,-0.03929278234688927,0.9551588817621522,39.0353371455609,36.718174291005155,47.97112272403678,1.0
2.64,-0.1828274131293486,-0.0898656676918338,0.9609659460675005,0.31347621924510816,17.38199400483468,-8.043103445261902,1.0
2.66,-0.3544284144622751,-0.26953548849738096,1.1254143993138912,-29.760775590210304,-39.79210894984484,-38.23219525151042,1.0
2.68,-0.2320312577810381,-0.17201991236401756,0.7047868172493358,0.2993801263871836,41.96991212942787,-16.378033464469183,1.0
2.7,-0.0028682573910501323,-0.23173357926944993,1.1316734729256988,32.63380935353183,42.017415131773674,11.507092536513944,1.0
2.72,0.21848539547370371,0.08233705690385278,1.0518230727299862,2.9548278447017484,37.6913692910273,11.789980799573403,1.0
2.74,-0.23869578933235197,0.082740613209943,0.9320009843684309,-31.172012935013107,15.10164617312853,4.573970845340531,1.0
2.76,-0.03869935256200997,0.25204507303591206,1.0513690049240945,20.446767399193305,-12.521579850503604,11.247758326974237,1.0
2.78,0.27594367806972536,0.2028159622836881,0.9975392947746218,33.606863895892616,-42.66344553837593,30.764574572707467,1.0
2.8,-0.1543877192811957,0.1924848483168666,1.0237683610828452,-12.464122524939462,38.21401020595028,-14.860991386379162,1.0
2.82,-0.20719401899215498,0.1204136290478377,1.0724246089805596,-14.010201141620387,-42.64797718019024,-47.585425123182894,1.0
2.84,0.26196689313948845,0.2143554204010406,1.188233589922699,38.61737340365298,-10.812745154191136,-33.99995861335532,1.0
2.86,-0.17712152865147462,-0.008629922395369936,1.05544126327859,-33.125638046197345,-40.53971339085106,23.425949671916662,1.0
2.88,0.24391851106393303,0.2466754317397449,1.108586588550458,8.37651647982743,31.817069970393835,21.269430283568763,1.0
2.9,-0.11321891422976471,0.18866986378177614,0.8721930133992533,35.88651148805551,-42.220342727870246,27.318808348170293,1.0
2.92,0.37110557211262163,0.2798460238167206,1.1721238138144905,-9.018181087927506,-25.799665298359002,22.46774728937423,1.0
2.94,-0.04640008737611343,0.18310603763195754,0.842658905719753,-9.236643914509823,-17.218311926365114,-32.61270398659864,1.0
2.96,-0.10556878458342081,0.22668548003400613,0.8907388226603268,49.80106197043057,-10.536002089343494,43.02021316372422,1.0
2.98,0.29270087652781446,0.014255058928379707,0.9084422122655398,-39.48471135141424,25.128939157213097,14.130780705364359,1.0
3.0,-0.2622653413540059,-0.20299178714424718,0.9704100728081851,-6.646980388616815,37.546433649582326,-7.433485735247508,1.0
3.02,0.03942364582662625,0.1789471264568429,0.9146802307117847,24.89956237135751,25.909241058896125,-32.05277109930728,1.0
3.04,0.13134835822703933,0.2899948516863885,0.8875393667697801,25.909288842631327,-24.484557604303408,16.53856860539396,1.0
3.06,0.1142409658412566,0.05991380452326944,0.8214302867075525,41.001774845428955,-28.356887274125064,42.358844225557206,1.0
3.08,-0.30716984042981577,0.1502659287239632,0.88536233497877,-26.73619220198852,35.97629693915838,36.66830114717667,1.0
3.1,0.22073238710218934,0.15347200876781325,0.88500936513054,-16.686733488650738,17.356830248332603,21.008456631989564,1.0
3.12,-0.2505025167399384,0.22018074275122232,1.1137848135126296,22.35101764751263,-10.2033378061793,-10.221484922684713,1.0
3.14,0.013651064341438028,-0.248941771013895,0.8311318749901719,-11.95730476454614,-32.43424808320795,39.63893184354379,1.0
3.16,0.19018894686453386,-0.0003413406452326545,0.984775703217888,6.756121276962082,13.102187431946323,-34.34406109303252,1.0
3.18,-0.07492254954954336,-0.22118965180995803,1.1167400531995004,-6.072508997162409,23.7902063997125,6.134836411698836,1.0
3.2,0.06354814251488765,0.2598478782093444,0.9963718705827485,-6.748978847448111,32.81569279824661,-22.03025857491014,1.0
3.22,-0.2190060192390077,0.2723363297742718,0.9984211546943672,5.692716192917134,-25.243899185182094,-22.243594028676906,1.0
3.24,0.08476960717891271,0.05135409326876033,1.1369796344557903,-15.798173256554476,38.170401522875615,-43.113259414580035,1.0
3.26,0.11522851582413184,0.11716148159610096,1.0672787760836406,23.862522775216128,21.516496840956123,50.063778844104064,1.0
3.28,0.2575717683060435,-0.1445467413058673,0.8618427554036125,-16.558154846220376,-9.743836665847347,12.134428519945384,1.0
3.3,-0.02191351899390706,0.04420814773655875,1.0092343965507486,11.787654816279737,-28.585659148229162,-13.419401162489843,1.0
3.32,0.10084077222629738,-0.1794408049186673,0.7919716526559963,-35.24063647524859,-46.99194027574906,-8.83228177656011,1.0
3.34,0.23943972014590353,0.12569853524737615,1.1874886713423032,-38.40477256959553,-20.807060130272284,-23.390509618505693,1.0
3.36,0.13389254510480297,-0.3089409231354542,0.9809107572946771,-19.174785491489224,18.80488116664185,16.323774051876693,1.0
3.38,-0.012115107568398783,-0.10076807442712118,0.9387002969527185,-28.439584423968682,-45.20739164461816,35.99808600416779,1.0
3.4,-0.0726367446912576,0.0922938591314122,0.7889469784764946,30.666308226635483,-4.004801633515021,17.88025269013474,1.0
3.42,-0.1115930997288637,0.06824302235801337,1.028560676955427,-23.76803200175756,-22.266954659996937,-9.906285415947066,1.0
3.44,0.16053618781502654,0.1884094149594385,1.0404050169096235,9.623126992959929,40.187861050735435,-1.3871310339683678,1.0
3.46,-0.030280569799857777,0.13166629730309196,0.9187719878249284,-38.11945351564394,-33.777646611137946,-1.526101540314655,1.0
3.48,-0.21342778419769817,-0.11577848197818733,0.9683442646094643,-59.415615075023815,-4.637485921783014,5.320475839507953,1.0
3.5,0.005203156196881054,0.19213969265288644,1.0081091315558,9.596520518737576,29.34750761553922,14.369257605670462,1.0
3.52,0.045061772635675616,0.15848871150112556,1.1228938215584596,-38.23616705629838,22.331168148105647,-11.96624691584303,1.0
3.54,-0.27568138571574186,-0.08910662679178434,1.152215806248393,-47.24425347939513,-41.160901263978566,5.759203131426464,1.0
3.56,-0.12559264649710014,-0.2341049871777231,0.902606148877644,44.79821765679558,-45.56018668263069,4.736775551693403,1.0
3.58,-0.20726185130336158,-0.2990914143733992,1.061937926245835,-34.97228120818846,-22.73414097191491,8.910890333855967,1.0
3.6,-0.029170871821449167,-0.056347447661347604,0.90439828952148,-9.587249267945706,-37.376746815585236,32.07054568498965,1.0
3.62,-0.023489122536045272,0.3351451646604119,1.1388357040304962,43.884458444149146,-40.78037829785425,-5.765755000395851,1.0
3.64,-0.23963612510000712,-0.215965761417015,1.014814988230033,15.672829225949236,-21.906152760780426,19.31913778757647,1.0
3.66,0.3383648102371716,-0.19686624584940593,0.909845698017661,-28.096158297616487,50.71998446771991,33.19746864696143,1.0
3.68,-0.008633775029235062,0.25829729943777674,1.213631447225742,35.289959494667755,4.010792120313984,9.970567270254154,1.0
3.7,-0.17597090576326813,0.05449856287152374,0.9798769523148023,-53.262786937948924,20.952364952510177,10.837361822732495,1.0
3.72,-0.2832333641840219,-0.26945151806590206,0.8036740873964581,37.3631567886358,-28.040305708316627,-26.521429602960428,1.0
3.74,0.21827372713427487,0.04171862129269807,1.0192730886330623,39.33827107619871,-27.489049563605775,-32.32739038240949,1.0
3.76,0.013011621160764708,0.03068078643972757,0.9063717360540603,-0.2493975965807933,-19.14363221949916,-0.26246049972960783,1.0
3.78,-0.34007267618252346,-0.03923573871960651,0.7992598727254954,2.4245551957162625,18.934445706812397,-37.150919072374684,1.0
3.8,0.09151789164299215,0.1407455866733544,0.9171191855814631,-49.667095530652965,-25.01331397596588,16.82417964480115,1.0
3.82,-0.10342316915818178,0.007354873591052247,1.1194794268740769,12.263817907931308,-25.977952062647457,-37.83853853214249,1.0
3.84,0.32726467669925946,0.01025689081905264,0.8800946686332205,-23.23810086382541,-31.552086946942268,36.82765878132578,1.0
3.86,-0.119065772188601,-0.05688327244393579,1.0265315787630722,-7.069491447468665,20.994816539976608,-52.84814051517065,1.0
3.88,-0.06365109991361474,0.20155021982652133,1.0135490872221262,21.963686977745674,-17.650660341445935,-28.30056295090426,1.0
3.9,0.13399045910208143,-0.09771057581814895,1.1048016962750298,25.227776217844966,-37.8067518908061,53.0421771080975,1.0
3.92,0.13138003148177474,-0.16520482470841258,1.098455613224278,35.70688884913422,7.099988737439264,-36.305893996271585,1.0
3.94,0.3113549412367144,-0.18453713849396275,0.9762329492546843,-17.735281174153286,-36.921582207228795,16.08961649406971,1.0
3.96,0.19911278929408882,0.11277178608168127,1.218922341210112,4.680863784896948,30.20017158947983,-15.397407749412029,1.0
3.98,-0.22983701754586916,-0.05961180689369022,0.8527066827679822,-5.907582036144602,-2.3197395180069416,4.932177964223629,1.0
4.0,0.2121433994002321,-0.4134080173623348,0.8763457003042766,18.667717730754333,39.7455650142577,-4.38963251239704,1.0
4.02,-0.02520828468649698,-0.003506702094643592,1.088994018077192,-41.499927233478054,16.40783776393209,54.134464226037885,1.0
4.04,-0.1740215599381736,-0.17319734520023586,1.1233490746503574,-15.25246666233633,-46.50556798535047,24.83849436287523,1.0
4.06,-0.17901542048769004,-0.29000008117186515,1.1014924468473963,-46.94052297344276,19.74313313239785,-55.35100327651726,1.0
4.08,-0.08002584114149142,0.28394163027206815,1.2785756730789377,-17.12780041612061,4.657794160639772,-4.063004040207294,1.0
4.1,-0.13430224427495388,0.19214545359994017,0.8500616769889627,-4.253556474530473,-4.105362228370057,-10.068413019600593,1.0
4.12,0.33655937107509054,-0.3256829897880169,0.8948882264815794,8.936704303097162,26.689645109950554,-32.085493364608396,1.0
4.14,0.20350384045447467,-0.2218000128963244,1.2305222728577152,18.624663540793485,14.698709548085516,7.546470780587425,1.0
4.16,0.05007768782031402,0.17762287901874088,0.886340624363333,23.253417235926616,-19.29928604543709,-31.691612757875767,1.0
4.18,0.20783856863589317,0.17756010876372078,1.166685095443382,33.76079209921687,25.332544502693494,-26.79959199938775,1.0
4.2,0.2824898926856394,-0.10866985326692101,1.0655645361306414,-30.948519451045023,50.51448171403033,6.109063948157566,1.0
4.22,0.0070296880926590186,0.043637087664818004,1.1499664049334533,-37.64256534552173,-21.23294245472011,-23.78808011553015,1.0
4.24,-0.23819968152327456,-0.15330149671122095,1.019817722988802,14.620993883602585,27.242832928982832,-2.1260544579715477,1.0
4.26,0.1344537821217975,0.29460786453514776,1.1653178898872034,8.303172069278297,-22.269058766948827,33.17126075608105,1.0
4.28,0.36958609624658245,-0.12342291819589818,0.823270747266944,-37.61524323051155,2.1077124510537093,38.71448035134565,1.0
4.3,0.32169087193371315,0.1482273076476912,0.9518994427667942,-3.7233815833844783,-17.19759267636131,31.561686034092705,1.0
4.32,-0.10272548453928523,0.0814497377305643,1.1138827471643047,12.181028978706227,7.303073437767938,-23.510912902903616,1.0
4.34,0.1713174061195766,-0.05785558158013331,0.9790668121293009,46.040117570787714,-23.710974289390887,12.841717510750643,1.0
4.36,-0.23059734943797858,0.04410682761873091,0.8013881141283082,17.84042041558789,-1.1852742452861347,-23.59942299971555,1.0
4.38,0.10341274283199972,-0.003750275156693572,1.123995741784085,15.217766083920655,11.064141170828327,17.966270423821737,1.0
4.4,0.09583529264333332,0.24713921032779268,1.0232274868852433,4.1272146317582425,-40.94147382929223,9.13225634373049,1.0
4.42,-0.10620487631373338,0.23714456561429842,0.8379775880510903,28.872693830037107,23.488313117355908,34.6035600491049,1.0
4.44,0.15480070641086363,0.047635915543029914,0.7794820821065742,-16.875673973502305,4.036469275786865,4.3636731965678575,1.0
4.46,-0.02087914091019923,0.04585337605295236,0.9959970963886712,8.374624328884593,-31.783437359239542,24.221232934878213,1.0
4.48,0.27095216417198836,-0.025243404629223365,1.052832979256046,-6.444572976058417,31.489125914862395,-38.91745366381145,1.0
4.5,0.0011185472257601234,-0.14863611591938145,0.8722816489835439,-6.833257993277848,-52.424223753716234,-21.02682514067651,1.0
4.52,-0.2999096096334674,0.2276693069868472,0.8075918047495573,-16.493478574337413,25.329378467125963,31.461407257496667,1.0
4.54,0.0014665707492750868,-0.10638580324387464,1.079348652032914,-7.639062850130937,-4.689878131073697,-15.684971848540723,1.0
4.56,0.1918265297525263,-0.12322265803289428,1.1313970627191592,-34.67444929593873,13.560250630788884,-28.092142063171305,1.0
4.58,-0.041060353981424935,-0.08616166961786526,1.2050376260025746,-51.73772670637757,-12.67052461796418,4.473750101952021,1.0
4.6,0.11227392983106027,-0.3534869146429578,1.0416149864820001,24.99628343263311,-39.23420038826743,39.280317668998215,1.0
4.62,-0.14583242203921332,-0.1269438380661654,1.1179142575117462,2.7160093382887682,-35.931591506341775,43.31100161830643,1.0
4.64,-0.34452515436508446,-0.2859702453042005,0.912197807128308,-8.092904594891763,-36.2656194192194,29.53151964979096,1.0
4.66,-0.11561525721797392,-0.3153780290132593,0.9765543887715092,6.926180970903614,-41.09383003081997,28.338376764624872,1.0
4.68,0.20067624342346868,0.12869997185136345,1.054378949378319,-21.95523135302546,-44.15017516314761,-35.93750790137218,1.0
4.7,-0.04556817534404391,-0.02060554056786515,1.0465989615081173,38.22270985662161,-11.41673301099209,46.72094370646222,1.0
4.72,-0.2890878211054256,-0.053147261522721825,1.2226969946283204,6.078376928315161,40.49514074710018,14.9823321495749,1.0
4.74,-0.09508192947061231,-0.02304471714070834,0.9943413129109138,-32.64040649046568,-7.362046739413421,-12.469029579421724,1.0
4.76,0.2616662285987714,0.10887163524944601,1.1393124146238587,-41.977139392969896,13.231560820635961,-36.60575849861644,1.0
4.78,0.04493200967738115,-0.11317586497415828,0.9048952905395118,-31.807081296873793,-30.205625716111168,-1.7279959021771285,1.0
4.8,0.17899351531911498,-0.3278918100490581,1.233010268685136,5.3436503704329805,-28.051803569333572,-48.52881757360386,1.0
4.82,0.176352031875961,-0.1751455371502512,1.1194551624610303,23.57149784088117,9.238406748903534,36.069265804000565,1.0
4.84,0.272696515593685,-0.047918779018885936,1.034395495242173,-15.446812523426651,-29.16000921432221,-51.431810682576874,1.0
4.86,-0.06809992497059017,-0.2393297644602101,1.0209608508743861,1.0626511039458038,24.882394692465315,4.263978275620529,1.0
4.88,0.1496050311943505,0.22627781621677806,1.0485186219339357,7.93158661919394,47.841436522252245,-20.282558738812206,1.0
4.9,-0.3134230790865802,-0.03352397232654958,0.9095310023710846,20.232129756538736,-36.68628008333739,-14.372672751678591,1.0
4.92,0.3131919821380502,-0.10017412192101127,0.9292739956532022,-7.867319841996294,8.412836797878857,50.37196208522304,1.0
4.94,-0.06444124108369814,-0.19956886952076058,0.9135551430238352,-35.83574066802325,-20.586631702403487,-50.38970143722055,1.0
4.96,0.11276375808689043,0.0542107403034815,0.8412787360949425,-7.496514342786188,-0.9336545193103206,17.130342563273476,1.0
4.98,-0.3188064333690464,-0.05008157691383247,0.8583453393667783,1.0977236436963853,33.6996378115747,42.67220120516151,1.0
5.0,0.2461555417587471,-0.025404367942889396,0.9514979043995234,-8.390568040742957,35.49794836243742,5.919054668145441,1.0
5.02,0.024224521066478356,-0.06377601828708199,0.9355186999070055,-16.710626916426882,-40.26974121187351,6.40773251931683,1.0
5.04,-0.058585273259776395,0.00903213773844401,0.9163087360509088,6.990668179489984,33.7612308654753,42.97644796063347,1.0
5.06,-0.1948344717725785,0.22230013321030478,0.9691911362948317,16.60957369690934,26.433190520952497,5.805101353862644,1.0
5.08,-0.08473522718977948,-0.1700114016097821,0.801025469035851,28.091426585826667,22.05011127529187,14.578689019664536,1.0
5.1,0.1787935818640984,0.19620815467368768,1.1170694190040897,-34.293477109726936,28.31649437964649,2.896084982602959,1.0
5.12,0.015493300990947645,-0.21723095675675497,1.1541408515208749,-38.89571806535588,22.967614562462995,15.63252974408765,1.0
5.14,-0.05299756939786318,0.03669114945789763,0.868054877516025,-4.131864877127024,-2.4908860506514303,24.184912166290108,1.0
5.16,-0.2618621983824424,0.0924180350754843,1.0617130277633733,24.90363757761325,-3.73169813889783,32.88222113183756,1.0
5.18,0.2954407956441913,0.058378855273797554,1.2698580149497505,20.202578211721512,-8.305755457220613,9.002098328074249,1.0
5.2,0.20093090179654827,-0.21194850981796695,0.9838191656862352,-6.539139052666434,16.37852328404447,19.633065455462646,1.0
5.22,-0.1360355389011491,0.1774892870776011,1.2517091468194934,-32.0105102825832,21.5796651806258,29.84672102491369,1.0
5.24,0.1992726927745646,0.05423219257262401,1.073451978819307,11.970800060228044,24.513455370125758,-38.955754697332694,1.0
5.26,0.09798978934847172,-0.359418241490791,0.9510704679053237,-17.529009414486815,-35.144505774649296,-5.113518432674487,1.0
5.28,-0.1662486717819951,0.05389018881133341,1.0866642058404166,43.466794281628694,11.601939524767204,-19.327776872411174,1.0
5.3,0.28647159623662305,-0.02392569348462704,0.890747240239192,9.078579128386158,-5.050976210367759,-7.535164797289053,1.0
5.32,-0.21037474034428671,-0.34086790869659317,0.7942436264310648,-39.42809674695129,-39.653302255473626,21.22434756522925,1.0
5.34,0.1603137435568464,0.26083829776332257,1.1567784610518625,28.76348057412838,-39.03821679485454,42.36863832534615,1.0
5.36,0.16216487088594017,0.0003547184306406624,1.0375626126504534,40.21198039565332,16.114469945596312,-37.0345031109593,1.0
5.38,-0.16169083569241166,-0.17206796121107226,0.9659940054998001,-12.52951428189948,31.37531019287841,-9.644844818595185,1.0
5.4,0.24251254366482258,-0.15444455580274552,1.2248058646395241,-8.385635756865799,22.955336479214992,-41.38250234373882,1.0
5.42,-0.12662330965507312,-0.03738634985976818,0.8891623461332725,35.673024042566276,11.21128637415114,-19.52193602384607,1.0
5.44,-0.33317249799034665,0.19386826434239443,0.9994167743680858,-41.87248702115236,-34.806410845465095,-29.239432211093042,1.0
5.46,-0.22136376098409535,-0.28230260647635474,0.8098956098375156,-38.379830429843274,25.16735319530097,46.388626720454305,1.0
5.48,0.008695580977839373,0.26973775920998794,1.1794087948223835,-32.000035438722506,38.11671480847804,18.776835627455995,1.0
5.5,-0.218498367709569,0.2569462876625303,0.7976008002391245,-36.207116052931646,26.45731523429099,3.2103292986948873,1.0
5.52,-0.004555970981955433,-0.054853846274289166,1.0159328361372302,19.589792870975128,-14.75254207681904,39.10729218580141,1.0
5.54,0.04181599086173779,0.31863151893918185,0.77566619482646,18.327532446320717,33.410198750171865,36.63702464334127,1.0
5.56,-0.15821313156155967,-0.26402677085979254,1.0476803663360355,-13.900569309952331,-39.131569986620576,34.052809068202585,1.0
5.58,-0.13701176754172473,-0.1756926596253549,0.9437690991421395,4.701593751327547,38.63214425711337,46.66852215429527,1.0
5.6,-0.06834264236710158,0.0910227092876516,1.0746912753734381,41.278764360237616,-9.139343798954112,-5.759699876358635,1.0
5.62,0.06164644548704909,-0.07479307655865047,1.1511612035340277,-21.156031377285814,46.234020690083234,32.97706293763768,1.0
5.64,0.20853733667060628,-0.19864008259562407,1.001149530217151,-6.067260912736776,12.583249259661612,38.04248844376616,1.0
5.66,-0.17080148771272108,0.2810985128888906,0.917918884472223,3.586386790549741,49.414973417488866,-45.70629468067597,1.0
5.68,-0.2784442969483107,0.10119828091132699,0.9275898966636482,37.35382636841638,-31.68036258671616,-38.148329219173725,1.0
5.7,0.12189667252259562,0.26777761496577857,0.8928212937930183,-24.229543350009187,45.12891208170214,13.40337003307659,1.0
5.72,0.048119514895019255,0.2902514828727103,1.0455495250023905,-41.851799326712154,-47.75572301358522,13.208426308527144,1.0
5.74,0.20557208185109643,-0.10657925582828638,0.9678236212492248,12.827444896338578,-29.23689160682385,12.394324181048312,1.0
5.76,0.05623646351355063,-0.2584445607974423,0.9113887372465219,-42.5823765400365,29.75178753546735,-40.51825365201808,1.0
5.78,-0.017417588706929152,0.09750571701774868,1.098780833629154,48.58939455521344,30.207304284061255,-20.06428780790918,1.0
5.8,-0.257959973117546,-0.028679767390958417,0.7280323896477872,5.754186515261331,-3.16928024825463,-58.35879289209337,1.0
5.82,0.013340921337988643,0.18811075301945196,0.9332365503614268,33.809594159910255,16.88441800697188,-23.782937584200877,1.0
5.84,0.21051736368154875,-0.24961630748330957,0.8528653228966249,48.7559271168352,48.72364529244815,-46.66486925651937,1.0
5.86,-0.3112165797128556,-0.15996078697667332,0.9814860347788495,10.539978985015273,-35.08101922774672,-25.790586794915534,1.0
5.88,-0.1802042833565024,-0.01263816079559588,1.0540904834490221,-38.11883163146291,-40.72709846829822,-45.4399486038521,1.0
5.9,0.20777559512629412,0.008027388954154412,1.1781884927553137,-17.04693432686762,38.043877700732175,-5.886750271087957,1.0
5.92,0.08928084199043666,0.15263305229835789,0.8479965907983894,-9.546077792585573,35.13937987921807,-18.336373785542964,1.0
5.94,0.30184884629185593,-0.030301952981683818,0.8072680061682082,35.6805489921531,-37.27200226989678,-13.744605707774772,1.0
5.96,0.016733559793247397,-0.028628432813756502,1.1556313451325426,-39.11936619497681,-23.149908536523924,24.625108538225863,1.0
5.98,-0.17947607686868927,-0.30652154870390874,1.173457589706944,15.649931308203502,-50.420456556119085,-35.04056745711543,1.0
6.0,0.22119584445498106,-0.126399600584727,0.8797930357947453,-21.437941488395417,-3.7865835810212625,30.302815657792298,1.0
6.02,-0.24704845297808592,0.08075437371936733,1.0421907084261046,-4.974753464147251,11.573447405977262,-36.57359639633373,1.0
6.04,0.24652652334685127,0.2186211465863789,0.8382875413110558,-24.150668794689487,-5.88013649649546,-7.4175401260865,1.0
6.06,-0.24804602430744374,0.1694721916552772,0.8824476948755787,-37.5321894206397,45.57851062230483,-43.32310736569775,1.0
6.08,0.13780406734213235,-0.11035850874300802,0.9415585563927911,30.579637289070227,35.05132201935294,23.070436848131244,1.0
6.1,0.08599888282134084,-0.16306575214632174,1.0586315169236,-21.654125568762858,-7.900260584196426,21.76133198699314,1.0
6.12,-0.09845554318844198,0.005624001899725409,1.1355365086991858,17.173358448990438,20.273180088524338,-12.842455802793165,1.0
6.14,0.24175962864176956,0.31303448025003633,1.1836993588515636,-56.145270600195985,8.427910114452356,-41.36460069121845,1.0
6.16,0.07867481760957445,0.1652822310667603,0.8912319725569374,-42.99094946176959,-17.24826369648685,-11.398452182872044,1.0
6.18,-0.05826530523180275,0.10355137248264734,0.8168686240166314,-38.26820795886885,-34.9431634616098,10.844854353514162,1.0
6.2,0.05194428320661856,0.10989715360040267,1.1656396371656055,17.55176177936047,29.43227075047326,-33.773420131395966,1.0
6.22,0.15977837805869985,-0.04059877940013756,0.8814505981581449,24.692645594252895,41.00071468340859,12.438842481775168,1.0
6.24,-0.2883344431160696,0.2619783119612826,0.9886846348556253,-43.60446184638931,47.701117698036626,29.180331484535643,1.0
6.26,-0.154603302002131,-0.12217183577418164,0.8387602629396841,14.082678751636077,1.3155328681158718,15.753705590668961,1.0
6.28,0.24002056642451178,-0.22453590104581245,0.9784324564596255,-3.8901870119025936,40.17131590917557,51.793228970594576,1.0
6.3,-0.2114486381499137,0.07884657076933796,0.9642135880736942,30.588894082683368,17.724624334766737,-43.00835650576604,1.0
6.32,-0.2123415928286172,-0.06431828157359296,1.0294841619104642,16.906801093276503,23.95813421905171,33.94910932564424,1.0
6.34,-0.21603836821402914,0.23921954117878688,1.0202515673395625,25.405992854726616,43.7774799961582,18.3728078819493,1.0
6.36,0.20532561062512533,0.016299016060586487,1.0530295397558678,46.766609200573484,2.826882503884674,-9.944241910891552,1.0
6.38,-0.20164761634643177,-0.14499455090612995,1.0309944676777827,-53.65236436410021,5.322517566140251,-9.544854925298804,1.0
6.4,-0.21163116870397897,-0.007190461032272347,1.2686178697338246,-43.68219008350539,23.77406216636824,13.726934332794201,1.0
6.42,0.08712067671489224,-0.05014990472562191,0.8510242831016172,-16.851052330347333,34.27943760780352,-43.71235851141272,1.0
6.44,0.211528925166457,0.06098786081039048,1.1108847817180956,22.589061757932157,-28.41887208489776,17.58790656262218,1.0
6.46,0.09031573901974355,0.0658185262730093,0.9897872110098991,53.131732372968955,24.87326172668026,-38.48572901481197,1.0
6.48,0.2496979990935443,-0.24172199304184305,0.944983427239209,41.7137204099094,32.20515631159443,1.835517998656682,1.0
6.5,-0.17934989668971307,0.02300977746146904,1.1342605825627243,-48.21150880330104,8.664666890839152,-13.054834892215316,1.0
6.52,-0.13673904528784697,-0.0354938618574944,0.9554504534145052,-29.7158564027326,-21.47420850585994,38.31920667685454,1.0
6.54,0.22179533220231884,0.08786790411726951,0.7285383452992661,-26.4876556495687,40.708524595221895,-18.29176668796311,1.0
6.56,0.2115393155049664,0.17408126370509153,1.129391004893756,-22.47002387198783,-3.9931583626292273,-33.81338254606326,1.0
6.58,-0.3152091599787592,-0.05581850802619298,0.9050867423803375,38.44231583040875,28.820394714506975,41.12904095068298,1.0
6.6,0.10861980979810959,0.29721671949026834,0.9150526149274621,11.349975356408386,40.26702840307453,-10.045201973183465,1.0
6.62,-0.10241489671841043,0.008908169275774654,0.9900570734929092,10.678546043675375,41.17624482487585,11.752098160473562,1.0
6.64,0.28093824851754845,-0.16142648903490037,1.148485258692046,-24.131708544152467,-36.188595029555785,45.94659994680719,1.0
6.66,0.022418472794940192,-0.1210016963378406,0.9200425473369475,-0.5355416868377167,-28.030758096008277,59.183213006687026,1.0
6.68,-0.24613185521881598,-0.2558759846364711,0.950087941407177,-38.798524802811436,-1.7599020577458457,-39.73692963865303,1.0
6.7,0.21506726252267266,0.025791508441891875,0.8680456739893727,-31.70440523535489,20.653459251838118,35.113898898236805,1.0
6.72,0.2510875076166085,-0.15697869968563197,1.2112364117495993,-33.050958719178205,52.23245441266842,-6.81686494555378,1.0
6.74,-0.12844722688532328,0.24117265775545138,1.2093386056454576,-32.76042280551466,14.350626375235485,34.19467689372956,1.0
6.76,0.16953788085993285,-0.2521073121500752,0.9435321226283523,7.8740664354183805,18.708900901237197,-4.011041347615603,1.0
6.78,-0.20771856329030947,-0.22264804365535645,1.0632440343503962,-9.5598562554407,18.57919448500533,27.259029513218568,1.0
6.8,0.13779808005488908,0.01740968525012944,1.0201202743630602,12.353417187941968,-38.34452176628377,10.937083076539963,1.0
6.82,0.12668442679818676,0.1813160917460871,0.8187231087536581,-26.1300865068666,-45.55184810612113,-42.77499151330414,1.0
6.84,0.03190419756929325,-0.3010125681857971,0.9888259802999604,-7.733310224002811,30.72437672882375,-18.59533616604059,1.0
6.86,-0.13460051973488052,-0.06765728190526314,0.7537457910764482,37.078765245740726,5.712354922180662,-9.465139422433523,1.0
6.88,-0.2844493365104341,0.18384746325046336,1.1301679235519735,13.161609399950406,-44.31378202286965,12.145105667768803,1.0
6.9,0.13503886960542333,0.018259183079630592,1.1531838078935541,-17.33605702954085,26.386694328774023,22.9288840746467,1.0
6.92,-0.2655067971393527,0.26751162199260586,0.9472005228286955,-19.931665080510115,-43.531318412684016,36.33612221057474,1.0
6.94,-0.15647734841086855,-0.32037124043622417,1.237428252211831,45.27189539407802,-36.641730070886986,34.98611362159835,1.0
6.96,-0.0957610507033935,0.03816096903916307,0.9659647737654808,9.708039628450816,-8.618217288545761,-20.870460214568517,1.0
6.98,0.10675725181479948,0.22670401235732307,0.9150728707435678,17.624196419180915,31.209347778423393,-32.84568285219186,1.0
7.0,-0.2345415693678597,-0.3830563935016995,1.021549504826548,3.4802562844399922,35.27576390433216,49.97814052971852,1.0
7.02,-0.21347393743775578,-0.024975324885027808,1.1408380364115989,-21.859230045280793,0.7625281155450583,-12.77415416301448,1.0
7.04,0.19943319863868597,-0.2725297674416152,0.8900841687136377,16.503396807662483,-20.90112504180608,-20.48570638385164,1.0
7.06,-0.021132063845854275,-0.20159234802728018,0.9420773909806404,-31.950191215281208,-0.25772930008378847,23.371063933309912,1.0
7.08,0.12735180273304136,0.02290493992171181,0.8796939341289403,19.086111055648892,9.934873851418587,6.196209657709188,1.0
7.1,-0.0016621214878125845,-0.09047845358365485,0.8286533200845971,45.07002776585872,3.1038028413425938,3.2961377119231052,1.0
7.12,0.3251441978839057,0.07684112808810606,0.7887896811277906,-12.853172118664718,1.2712040139764327,-31.289800261810058,1.0
7.14,-0.028570271980929852,0.0018524046502813168,0.831587948753107,-25.71732446811154,18.237233434393076,-14.158616014184346,1.0
7.16,-0.22382314663632152,-0.12277693541644971,1.0957318739539943,-9.746703628328108,50.13476517790882,-4.734824236368561,1.0
7.18,0.16308221384285962,0.13725788314436937,0.8774156718343321,-33.98183599941737,8.7556292960126,26.158667383871492,1.0
7.2,-0.2554901513725749,0.21271614636685102,0.9060318715689955,19.33495189888817,21.71397072222622,3.9075650735235676,1.0
7.22,-0.170097351034771,-0.16711922931531864,0.9580587792060278,28.41700963511992,-5.03978257480304,-20.756822242128017,1.0
7.24,0.05276885032101129,0.03701634160037215,1.230669265178999,1.2967174825273426,-15.999484443935083,2.977512803937529,1.0
7.26,0.265412513009473,-0.06624697368241458,1.0413257544727332,17.986069612256692,45.74422036045146,46.12780853821447,1.0
7.28,0.1554745931594331,-0.06415346670658804,0.902332550678028,-15.813057464675898,-35.63876723799093,-10.56817732886395,1.0
7.3,-0.12502644181635977,-0.3063265026584267,0.9140433722874359,5.964104489295124,-48.232123757634454,37.80124635387377,1.0
7.32,-0.229828518728633,-0.1502996638054737,1.0109739228556758,-29.27390756326873,-52.55550602610478,-17.582158062673443,1.0
7.34,-0.22452246147440164,-0.1251849770252229,0.8641075156117749,-10.982526428591063,37.231234152336235,16.647824148497058,1.0
7.36,-0.09693894911311307,0.04462935108312158,0.956037780971494,10.640557030942428,8.135841995835719,19.74971593308962,1.0
7.38,0.12173923135662643,-0.23191203107038638,1.0793691997706223,-33.64968194280656,48.736225173426924,-29.44401469516049,1.0
7.4,0.2402041121887158,0.26266944780315993,0.8532295032981152,42.72920137198205,36.6568034637241,-37.402147168421564,1.0
7.42,-0.18008847131176547,-0.34535617045498973,1.0295833860399635,14.006789142339478,0.3848076623833929,8.845216096156218,1.0
7.44,-0.007154935312944359,-0.1559436728318687,0.8825824067116107,-29.145101463788098,-37.16000962814708,34.18236227933993,1.0
7.46,0.07008976383731605,-0.05355673195431519,1.1048315186538302,0.21438007383264313,7.572704172018727,38.48207079027555,1.0
7.48,-0.2578529894156804,0.30100686810286786,1.1252485647589237,12.803054087086458,-24.147450500697488,-14.198310297690227,1.0
7.5,-0.16874932573938953,0.1968135523493336,0.8393799887711375,25.644331248232227,-35.58069089739154,-3.418791059177712,1.0
7.52,-0.10584488664569455,-0.2881800515098959,0.8081784610448874,20.52134569681564,25.460382268858346,-9.537741223180637,1.0
7.54,-0.056831888147637455,-0.1480979589116104,0.8611036788230857,30.140362174450633,12.570911431032524,-17.624225811911323,1.0
7.56,-0.17167737998198562,0.13747137225866218,0.8847119755642823,48.5360077686167,35.219802816059655,-42.76711179851794,1.0
7.58,-0.16461660752649415,-0.04299670124700922,0.8629408033682493,40.159147527623766,32.809651831818826,17.84506983168396,1.0
7.6,0.04597845904972199,-0.0329284111689077,0.9665898210517994,37.47120849447629,10.49164981981692,-45.9800651751346,1.0
7.62,-0.2557053049156453,-0.2490132160700535,1.0790318566153225,34.10485785090965,-27.040410689367835,-8.401396907251385,1.0
7.64,0.22557955510115696,0.1651511517649002,1.0667300690497907,4.648501291475852,46.07594939224288,-24.64124031434573,1.0
7.66,-0.09703138450420071,0.009488713017979183,1.0460869971263362,34.00500332694062,-21.501735850164117,39.020270930129094,1.0
7.68,-0.2025583930788722,-0.2192443719754133,1.0688274633447448,-21.335365485780784,-34.21331923222559,20.692969346135154,1.0
7.7,-0.15468900672755484,-0.24002240573442307,0.7597859567364053,17.168156849286106,45.674689244091866,-39.040799340725904,1.0
7.72,-0.2052059571709165,0.13883124909453326,0.9561350640792489,52.0370541813923,-38.91402940347798,-19.457185000013318,1.0
7.74,0.11975434147233519,-0.2896951306230829,1.021812594909853,-43.230558503436825,38.65565307566117,-39.65119891387427,1.0
7.76,-0.12503907615356763,-0.16667897684505537,0.8355497110559371,-39.764418513537414,-27.933769731543038,32.92100476470876,1.0
7.78,-0.01624164157581137,-0.0324788221568331,1.0194566519825776,44.68572553358145,0.9054021631352677,35.47890200321596,1.0
7.8,-0.11612010729703495,0.034352229606288226,0.9124510518253491,-39.40874005096902,-1.7930182980333615,-6.685011475334659,1.0
7.82,-0.06878123412327698,-0.1800693900652025,0.9797425047573861,-11.949694478402002,-31.759589049040898,-53.85394895783261,1.0
7.84,0.08431000162033525,0.08235491067741564,0.9941862241907106,-7.939029382182424,22.974451920928445,-28.757164849299098,1.0
7.86,0.20582793641738162,0.1453556910804256,1.0915089791966526,53.38052966676153,8.510423553035569,35.34739387134165,1.0
7.88,0.13470723500223214,-0.17621294919184133,1.1731586976109991,-37.17741648978701,14.495440584953034,-9.714304860285342,1.0
7.9,0.11674061284265527,0.11800511717436257,1.0026765630355696,23.067394331739713,-35.15975855153728,31.609768656410438,1.0
7.92,0.031284155297352664,0.03855056112606989,0.9674337359623051,-2.2561913511121023,-41.30536901450089,28.94971007848192,1.0
7.94,-0.030641896023482523,-0.06537814191922471,0.8998000314332912,34.009761093283444,-2.508149105843203,-15.623841584888833,1.0
7.96,-0.14961254132565857,0.14317068503963662,1.0131318806001528,20.56728649813433,5.382874366364974,28.37534070037769,1.0
7.98,-0.27743797324406466,-0.13360435740375987,1.213946894996276,3.7515021264851,6.316099024532002,13.023210680312864,1.0
8.0,0.18322607996806878,0.16407476680038777,0.7790047881169081,29.845882095873097,-32.46866593467705,44.79464849274318,1.0
8.02,0.013209272374596029,-0.14635883723480356,1.0073155744370186,-27.143759658902578,8.231716903382214,-34.753735678844386,1.0
8.04,-0.003032382812228847,-0.05034383627875709,0.8658660102049095,-40.128345661798235,-1.1068938075358696,51.97509478990421,1.0
8.06,0.15248646801328167,0.20906145448781865,0.8165874966639632,-16.80672681255577,1.477958533348748,24.582603575262482,1.0
8.08,-0.21413863010895248,-0.2767027947458871,0.8655307483471246,-50.58072225678835,20.5484858003644,-9.610179474099878,1.0
8.1,-0.10155138209017633,0.24750130107173324,1.0779538424497694,-0.6469460349723422,2.8566075545928324,47.116800692269265,1.0
8.12,-0.12352876759799987,-0.1755683807202797,1.0618933861481596,25.316189217884062,-42.437599462004684,14.038532737069723,1.0
8.14,0.09646045212787425,-0.31982280992475237,1.208536209831998,-4.037839353369821,22.05488753281375,-49.383986576275944,1.0
8.16,0.20001028660153009,-0.252975088733476,1.0308903928232251,46.387823796205495,24.559605798200373,15.305699837435828,1.0
8.18,-0.22970115375108138,-0.08733740425106927,1.0561086187182924,-2.212249219929914,5.252734161554703,48.383718041979755,1.0
8.2,0.06382328182850854,0.08705257073934437,0.8546284743981706,-10.05275557510865,5.4668903529524835,39.809017220105815,1.0
8.22,0.0004872073861225956,0.050977851961558684,1.1317051760005528,39.55538467332555,33.2448278855462,47.14920284455867,1.0
8.24,0.26614199233105945,0.015756914148941453,0.9923999675305413,-21.599777115255968,-9.21681774238672,-22.531937767514098,1.0
8.26,0.1749650130084804,0.11865565754699925,0.9124170296187789,3.013893921720043,-34.3952016388557,30.40968505221216,1.0
8.28,-0.2583857622026627,0.2929257528591834,0.7924959091556849,-32.080897665652785,36.10044725361472,-51.478259890811856,1.0
8.3,-0.25997014525503925,0.17367262579428186,1.0699500492529734,-4.718756450296766,33.99465207330184,28.345722040446486,1.0
8.32,0.10485867624259124,0.24710767290771346,0.9052217831658154,20.346156102818263,-24.54898245663437,-41.541711218511615,1.0
8.34,-0.14028991350397116,-0.1542967465510737,1.0388292053817652,-13.988480621987536,38.847466044074125,7.156770901695091,1.0
8.36,-0.19252348899292132,-0.2909916360357816,1.1338408610066142,-20.30349874573637,-17.88540560047668,5.917321092351406,1.0
8.38,0.28202979591486627,0.2708159292822214,0.7939327215946392,33.96201694839846,-22.4860562091126,-26.62186186491183,1.0
8.4,0.1286486889745927,-0.08272779732202525,0.9771497157973188,-50.21731030337066,4.721606492347828,-5.017936490650511,1.0
8.42,-0.24792823799990607,0.09152650982973255,0.9550004396224537,1.1900899557130202,46.20632377379441,-4.428191259071939,1.0
8.44,0.3095010063516512,-0.3016285862922916,0.9852854613813369,21.023104073991654,2.049274926132168,-13.63455580666592,1.0
8.46,-0.21183637578144496,0.16448916405119268,0.7800803474866037,38.70274453253647,-46.50292475093681,-28.963846047086765,1.0
8.48,-0.30182021270161474,0.11759906586460059,0.8619097131696037,-18.474706215006627,47.61587568251945,-42.95331520458382,1.0
8.5,-0.30991424276243756,0.21376692456603627,0.9811539383737614,-27.171103732252146,34.2916471437614,-16.562295162869788,1.0
8.52,-0.041072744990410824,-0.33688076747908346,0.752776541232461,-37.537637079803865,-11.872973801381196,45.95009985516201,1.0
8.54,0.12661929113898743,-0.1943975215406721,1.0699959874732403,-49.34998606294827,-49.21973657344911,23.394836925790532,1.0
8.56,0.2683481187133751,0.19830458469532952,0.9420385063067274,-49.554241467525785,-49.74791500860684,4.057826595470605,1.0
8.58,0.28596109035196565,0.2723739734278955,0.83538842473673,10.296550019798348,-15.529153793191872,-24.070336322734768,1.0
8.6,-0.19111205304067258,0.3188598048291794,1.1512273511880267,-3.2983387611372246,20.322957555237156,-42.45513462988093,1.0
8.62,0.15803968573949892,0.049668239284474704,0.909488280768592,35.5604890425708,25.664399299906204,36.860707432897094,1.0
8.64,0.20157298091014242,-0.07478562188776186,0.8630688062819013,-5.398658639625105,-19.7966184823741,-6.162503831606161,1.0
8.66,0.041158168105622284,0.33354461704304733,1.1947880574710856,35.1094508469388,6.212590305673034,16.272746523383283,1.0
8.68,0.23887956548479003,-0.13446083346040869,0.8473249873726042,18.740200277620374,-15.939422982638963,-10.406033492993132,1.0
8.7,0.063529588774855,0.22523744567018675,0.7803514469136817,-2.591347395025874,14.425495131248791,15.124120074570842,1.0
8.72,0.06432768455667842,0.054638979697349245,1.1975964881961687,17.8388168565565,-19.22771749815748,-29.571312259900676,1.0
8.74,0.24474224931999086,-0.3241335781016606,0.9631306898059016,44.09133759781948,48.62105403076584,-8.929669334734914,1.0
8.76,0.015201461854073907,0.06596180925473888,1.047604367113181,-37.452926905577584,7.5466804905066045,13.280973377012653,1.0
8.78,0.17758048098023133,-0.05462811283601711,0.8256382707139348,19.950480467327054,18.38540490712368,-31.50563332573869,1.0
8.8,-0.22356439435519734,0.14191402125229538,0.8483454363819736,54.50023654251425,31.95450264385273,45.79438927166066,1.0
8.82,-0.25649423951768596,-0.007550249893716332,0.9014102264636494,40.824919154728136,26.853113809560007,14.854985714723203,1.0
8.84,0.12103197731817215,0.1978660878442855,0.8771903387333225,32.632456091929974,-20.917018467483217,6.489569961210195,1.0
8.86,-0.16865484602167508,-0.1986848884462948,1.1260828460172276,-26.483821510531293,29.114993296746803,37.36787040761158,1.0
8.88,-0.10483741706951415,0.17104357083778013,0.8714127950808154,43.974825045195374,-9.691931315433127,7.589719060012421,1.0
8.9,0.13951282808873566,-0.12267469008374811,1.0445758480618306,29.718398047367554,3.019733449650478,15.068593753053893,1.0
8.92,0.11015563622335242,-0.014233877829480948,1.1273691962214398,13.87223828313709,-6.868939873831233,-12.564729005873355,1.0
8.94,-0.018201549022197255,0.09392701164393503,0.9603527356421124,48.665766839888676,-4.9012687062084686,4.350065785368407,1.0
8.96,-0.04471349810120326,-0.08283185737148122,1.1669227926812653,1.6547279368354664,-8.553446985812666,-22.709407268130878,1.0
8.98,-0.1677164942429793,0.08846743165250802,1.1743413502102773,-11.434775795937547,-36.06449251924377,-18.499507232236493,1.0
9.0,0.27928319036965854,0.34525844370853537,1.071709254606331,-4.907434577205329,-34.82849966439928,-24.061555778835807,1.0
9.02,-0.28988531646411914,-0.31809646022772187,0.9106380450833421,47.67412436649207,20.832142309644503,9.46239831924123,1.0
9.04,-0.14232696356304814,-0.34890318515354246,0.7236905947295319,43.5746877590714,-4.862389089907535,47.027153714600594,1.0
9.06,0.08180880735133358,0.3774666900740153,1.1610293362997386,-53.25087204444447,47.70786092358053,41.54152120118752,1.0
9.08,0.26217797414691457,0.13675637565709967,0.9604281879039642,-7.264415329902524,-43.132624776971454,-24.42392724260503,1.0
9.1,-0.1743900076723709,0.2189946227499521,0.9262149650704694,-44.77358492687722,10.721665155953374,-17.018626907231727,1.0
9.12,-0.18367556284263015,-0.21428159617014958,0.9164347797907715,-26.53838600446606,-10.151767637509225,19.659110741991967,1.0
9.14,0.3259405635421262,-0.25595737299705107,1.0744182303831848,-16.78724330801829,14.708034816150093,43.337176818030365,1.0
9.16,-0.004037494530068256,0.25958671866078664,1.1020921672905089,42.86374841326815,-42.14204938215067,-6.537107512600684,1.0
9.18,-0.25158902254103443,-0.1553386769419432,1.0122796762519193,-28.73702813864626,45.03315319161154,-4.66737342824455,1.0
9.2,-0.16599901289117003,-0.009413502744121924,0.9925948130249028,39.67496414005214,23.218958013136774,-24.78560635033238,1.0
9.22,0.2131403694848571,0.2023892467635183,1.0767766175534892,-14.534495277005416,4.77497542621137,-20.117944523388577,1.0
9.24,-0.027064315091470875,0.07369074279689636,0.9082902735910314,5.974856141133141,-3.05925077132102,21.377053878965274,1.0
9.26,0.05188954759100095,0.27612321104564397,1.0721541588600039,15.791123953436134,-38.4462891828234,-21.526119131661048,1.0
9.28,0.24257901594656545,-0.1823816791953387,0.8358963524722994,-2.663868375573726,-29.443763577401153,14.861302286778605,1.0
9.3,-0.19524470884739478,-0.037389941919237536,0.8339061589861764,-35.26711575480761,-45.25005739232282,-36.88711388334803,1.0
9.32,-0.02188010485584589,0.1492101934461815,0.9902829258957623,35.49484036770055,-22.162499532634303,15.36710111923113,1.0
9.34,-0.09345340978113628,0.1656251293435993,0.9119971003308426,35.82165360243836,16.821353203107776,-46.35731691664631,1.0
9.36,-0.18862150720591944,0.19642169491398698,1.1479355541747185,0.056982661207949814,18.545623316721354,-10.523657113828218,1.0
9.38,0.3106292390073903,0.11875201698011503,1.0641454570352826,23.10950185110159,48.19044083321222,40.06435388573436,1.0
9.4,-0.030085383522675063,0.05295555547631428,0.9100861066906376,38.7286709096356,5.63261080122866,53.04519346098055,1.0
9.42,0.13639904052286278,0.06473423162406522,1.0221544162538199,-11.962310251191177,6.94602005756706,26.08035837510744,1.0
9.44,-0.3291651440214609,0.2832721316343196,0.8669313380029139,11.231938345126032,31.12044628893046,8.398712543195424,1.0
9.46,0.06760783829356427,-0.23484768787194976,1.0086655914588583,-12.020307318283612,10.954767862046396,-43.26883253442224,1.0
9.48,0.027544561750346835,0.009873223291415323,0.847422908930556,10.63319138164562,-49.031092588096,-2.287411550031214,1.0
9.5,0.2889392422735345,-0.18079917287822586,0.9196192539287051,-15.102630273716036,-35.96652025711099,-5.4745683680313215,1.0
9.52,0.21315754461364617,-0.27768505610737176,0.7885503415957282,-8.27757655759996,44.644292417158766,-51.67481379990872,1.0
9.54,-0.12866902111514258,0.06310616491762278,1.20666305721894,-8.671580933801046,-47.704358454031755,-5.733407250313527,1.0
9.56,-0.18613902326258033,-0.3041432087043421,1.0871459162324917,38.35327745162162,-27.01708288028777,33.58334576454903,1.0
9.58,0.21770907305708723,-0.20561308166030595,0.9768137086267555,-3.5082254616950985,-3.544572431717124,47.40651141109342,1.0
9.6,0.3017171389035427,-0.1890240303669615,1.1012100879246254,-41.490185495283505,7.078794070416374,44.59447064196565,1.0
9.62,-0.2504378095356305,0.0854145687027448,1.068106716426791,-4.64272152270723,-51.791548034667834,-57.784531359764784,1.0
9.64,-0.17906936087581454,-0.2433320203396024,1.0259516630382182,14.308799143413987,-9.103576538058647,29.964676102064224,1.0
9.66,0.05773571362077035,-0.03816027973961074,1.064761495533734,18.764437904448034,-27.283621556124853,42.95058738741515,1.0
9.68,-0.08971069414742588,0.06599854076738752,1.1475751906345013,13.065026224752577,-33.03825877676316,40.34005332510494,1.0
9.7,0.18279593394899804,0.13691414012240116,0.8034522158876873,-4.078952997441483,-15.361029905332831,11.178353205417416,1.0
9.72,-0.146264348951943,-0.0325294888982707,0.9433708594771504,-30.420784046383368,43.66203644908109,44.365406654738436,1.0
9.74,-0.10405776600574056,0.2278978633785289,0.8546450684572768,-9.797220069484876,24.70591199218922,-50.02384023098443,1.0
9.76,-0.29795927710489917,0.03676410870409205,0.8898144927077898,-48.59277871793399,-37.93688381862859,-11.841982658427877,1.0
9.78,0.2637648116560959,-0.2006372294070841,1.0233349859652983,0.9933273772083062,-5.769646986725321,-5.119639312542375,1.0
9.8,0.06313925009558037,0.13897768330140306,0.9512259220412544,-10.572231018409822,0.461402509938843,2.099608447967075,1.0
9.82,-0.3264839900284999,0.019957264458859342,0.8860853784852013,-34.08972289154521,18.099038012788693,5.440455520365404,1.0
9.84,-0.027023344914955796,0.3220296973378754,0.9850703146156096,-41.13342094974765,-0.3702872052170565,18.90638024696766,1.0
9.86,-0.007908950351568036,0.17959870272346828,0.8424634391673597,12.336206925561575,2.69807803374919,15.603801515373695,1.0
9.88,0.3716792996966286,0.127367351730787,1.1595769469527824,46.00659266334153,9.544599956454835,-39.01060031803317,1.0
9.9,-0.1707041698592091,0.2662112725783104,0.9123769560534448,43.01988261414586,-26.790360445942436,-39.82454513390584,1.0
9.92,-0.12568546168038286,-0.11159010221786608,1.21210659077809,31.271178863622737,14.849818040254576,-16.44847026313688,1.0
9.94,0.08894385989870053,0.3079072389104035,1.0767594534736826,43.43234364129206,-6.106960082564915,-38.56082944805997,1.0
9.96,-0.2540124587260603,-0.3486425181323338,1.0195581049222078,-11.477581370495649,37.04415136892764,33.65893102803137,1.0
9.98,0.014357972119314909,-0.31991663770890866,1.11844419976044,1.8591903566925723,-37.61801756682297,-44.79575670306654,1.0
10.0,-0.08141756046232276,0.24193024745526093,1.1708300113943997,36.023028907190636,23.430102031741058,-26.465435062782447,1.0
10.02,-0.1921290569878679,0.28220662534867,0.9884489938111642,7.684622431554016,-3.915334164725092,-18.606628138599184,1.0
10.04,-0.027861036501174014,0.10217666309143508,1.138079174975207,-34.21630423510358,-40.34034463627602,12.67205180966917,1.0
10.06,0.06858537147039676,-0.20837368688173943,0.8740943803760605,-16.22771395373471,2.283545499694097,37.44625290344888,1.0
10.08,-0.05173802874309831,0.14853562322677993,0.9370428690070157,-28.39574704443856,43.314867101832014,-6.655753015441178,1.0
10.1,-0.2064682652491488,0.21930200987511828,0.999030253750286,41.66028737680913,-0.12029295408080909,-34.59702969709014,1.0
10.12,-0.21086947962105326,0.27857829414734875,1.0989022085966627,-16.259259453687534,30.96577489583008,14.881552992888878,1.0
10.14,-0.1908436600576082,-0.171362810742316,1.070500224186318,45.300050844047746,-34.586640609984286,23.135593937452732,1.0
10.16,0.21423354972249842,-0.005536588416210327,1.1424345030452479,-22.012979561173847,31.314676275201315,45.18793581256849,1.0
10.18,-0.0018974222182960177,-0.1778622069684695,0.8694394862063326,22.63114710953355,-5.797979505383953,-9.155452005930833,1.0
10.2,-0.0603188289782936,0.08776318368824611,0.8568952593560913,-20.843414491023154,31.40541795967468,-48.374584630158374,1.0
10.22,-0.009438523359118843,-0.22072944454352472,0.8723490352328521,-37.09888183506144,-20.401007476611863,49.71247623055237,1.0
10.24,0.09642874977663575,0.34612253588459463,1.121651041001174,25.664379978574395,33.844639836801186,-12.198705810919769,1.0
10.26,0.04336215384081976,0.27540743892672886,0.9630801779577421,21.801762215450136,-4.168090417566895,-38.491942380776514,1.0
10.28,0.1314085206534016,-0.07033211226400016,1.099508837155178,7.324980551784579,52.46633525251186,2.598876673270512,1.0
10.3,-0.16068238828282455,-0.006002675189676648,1.16200642682329,-14.181813624361434,-22.015703439108055,57.58097343509367,1.0
10.32,0.24477305799924864,-0.17949731483159387,1.045097268017706,-16.85792704872747,30.106287848576493,-18.03518735118523,1.0
10.34,-0.040835096938796445,0.04361760553243431,1.0364332288616347,20.024327744337185,26.21729970722106,6.7081546464616775,1.0
10.36,0.0726869928794852,-0.16889442743055855,0.9157670235039862,-32.64168066320296,-34.49369649764806,-14.78385619888008,1.0
10.38,-0.27030119401297814,-0.10385560329162769,1.008048904472481,-24.969106997771686,-14.802070610046059,-30.895766864049804,1.0
10.4,0.23259536894686111,0.32204738578152764,0.8229823625250677,43.33716529376199,24.93845825689192,3.795557209935022,1.0
10.42,0.23017608281803748,-0.2355976560544215,0.8525205181428095,2.6568606535102592,-6.899332573842173,3.1473999097692236,1.0
10.44,-0.23181186659228423,-0.23545354971745952,0.993247448978721,17.61775884585345,-29.371078236018228,-2.5489788897931085,1.0
10.46,0.12073960666217648,0.009976792940295312,0.8002800015431777,-22.911032566233665,6.640540867059699,-45.17121702876089,1.0
10.48,-0.2852248268137344,-0.09517203098640746,1.101834058449881,-5.136846931648153,50.36016770094434,-9.170349431759035,1.0
10.5,0.2007530171820428,-0.07289525093964933,1.0897178595010037,19.683094246076717,27.70091336965958,-41.80629514513447,1.0
10.52,0.21381909318009573,-0.029198888181359052,1.0456082999385046,34.13846946195919,2.606837786526863,37.97308458728058,1.0
10.54,0.05946934204124039,-0.04417493556854282,1.1369581465588328,52.94002357726582,-47.868471451138284,-17.159990239382118,1.0
10.56,0.2777712388118521,-0.06600358573682463,0.8552163823660848,40.504724746247916,12.624950301804468,-50.76432426987774,1.0
10.58,0.27697759625286683,0.08588622312132374,1.0224700324385494,-4.910268436795498,43.72326661566874,-31.683583634724634,1.0
10.6,-0.14206538065365082,-0.031052588317378175,1.035148488931917,-1.371696666645324,51.25961870109324,-31.548577779283676,1.0
10.62,0.10426580382286003,0.11638260672148946,1.061797869137892,-3.8228964700788266,-11.322852717312443,3.3698904159051892,1.0
10.64,0.26814259962278514,-0.28252838391112894,0.9991135678820379,39.586746605750626,-16.167140870209728,-28.89073618267769,1.0
10.66,-0.21928614004292396,-0.1689844058363224,1.01136481821672,20.73412988107488,21.956875665515337,7.365887144119555,1.0
10.68,-0.09299609896554199,0.06371098557826875,1.076953831401139,32.31559978970904,43.42731266089421,-22.843677884167867,1.0
10.7,0.02048529831301867,0.10027606530870348,0.858382532376898,-30.78218362632886,-31.439343448724898,0.008177680832755385,1.0
10.72,0.05804106040967899,-0.19615714704482165,0.9483056117440702,-4.557857293196103,27.874723085052768,18.537633778074905,1.0
10.74,0.1296854178234252,-0.29316007794505833,0.8185048741222714,-19.50613042622112,-31.619345371491605,-0.18065862696337742,1.0
10.76,-0.26862832598465747,0.013102226988940691,1.1890596001036406,3.707541264612626,6.1860084456167055,35.101038587940515,1.0
10.78,-0.02593840767128966,0.09800799901705651,0.7690010314996585,-25.480707274021366,-15.362530764086312,43.438756312563314,1.0
10.8,-0.10379868103349053,-0.1580429747897634,1.0289650340254715,38.051689467523104,-30.60952653514657,5.581486956940905,1.0
10.82,-0.05217781511525661,0.026303577219057628,0.9516196093760368,-27.941525422680982,-8.906720958103723,-37.45188830144706,1.0
10.84,0.15346721373117622,-0.20256977721150385,1.175262280827659,44.5187414872604,-38.93999592706972,8.656143300392172,1.0
10.86,0.29510601603496944,0.32617766254811764,0.8834358433942286,8.95324337585883,-28.659149306642593,-9.69011395265239,1.0
10.88,-0.26229920141559665,-0.12026722237034229,1.0019005109124421,-45.57911783219171,4.012460600509526,-7.995979291244753,1.0
10.9,0.07513899211575908,0.1667646938111033,0.9359009765581776,-53.19761917905059,43.389463080240134,-1.167536166389905,1.0
10.92,0.18401335360792184,0.03975250882161601,1.0347176440922174,35.18302918568583,33.216452979364824,-36.13636417506017,1.0
10.94,0.25395298691142665,0.001764423307444942,1.2031636611849743,-41.71238081396959,-25.266635704905035,12.554085717719156,1.0
10.96,-0.03518197545541901,0.40206974996394984,0.9357157472679394,-38.436438371261985,-43.78022426959248,18.285071303683985,1.0
10.98,0.0047707267404260845,0.1946287472804638,1.1176057530822412,-16.243544684494115,5.575731959334601,45.5922965969292,1.0
11.0,0.10294271453242348,-0.2753177772750159,0.9003510550564588,21.94431860346526,-40.19269676553273,42.53617443515853,1.0
11.02,0.08376640542175096,-0.1210125986013609,1.1646427061896107,-36.69235687582193,8.3876741220957,-14.189520211916866,1.0
11.04,-0.17619991119867734,0.20853730975514048,0.9002736662875535,12.712116430853143,30.140148969621176,-23.919545745072902,1.0
11.06,0.10942180976935038,-0.13071720192658254,1.1116146421863462,-3.5438151042457213,-0.04655283392474008,46.336816686220054,1.0
11.08,-0.06287506444741083,0.26060080584496653,1.1055006871659916,-12.637510761587144,28.64999323144381,20.287150623348857,1.0
11.1,-0.1297488669476054,0.1643205515254303,1.1295105253404494,-33.42364289998427,15.704434377422011,42.8829423061552,1.0
11.12,0.09260614318414001,-0.20059919865705425,0.8200104753579149,-31.631217996934367,-46.6734290489254,-29.815384189142065,1.0
11.14,0.13202977561523557,-0.012637879171590517,0.8296132211370593,48.772008033187035,-29.126445155830098,-38.31994186878913,1.0
11.16,-0.1272226273789542,-0.0865139020902238,0.9970299151791492,-5.812476778269346,-10.36207653559021,31.023153045202456,1.0
11.18,-0.352091365570169,0.32562051560815164,0.8632553784296627,24.49923952054847,-44.6707979396575,28.711588847787844,1.0
11.2,0.07048832598385116,0.33542859524491286,0.856239935251814,30.885030910694194,-25.33434562140957,-44.07276969390692,1.0
11.22,-0.23266850755809243,-0.056838721224137745,1.0241815560788952,8.778998906472383,37.62015785122862,-2.207453449322762,1.0
11.24,0.025370274718606006,-0.03465558573852444,0.9850741657736551,-19.522898264650458,-46.802243710776445,31.420600603823456,1.0
11.26,-0.1232633260830608,0.19610960292506419,0.8397585258581486,18.233813786663145,36.30294968361885,24.533074389627725,1.0
11.28,-0.15183988170144877,0.23986224061872727,1.1491334038794792,-42.61183607344965,-13.12830751278656,0.1733836097647421,1.0
11.3,-0.002366280613467781,0.21614585146937074,1.1299554491575319,-9.371801478246274,-28.239386821483823,52.77711333475174,1.0
11.32,0.13843584119832902,0.12453165296849397,1.1396795742095394,46.16818145988119,44.52514917265462,27.07454658456399,1.0
11.34,-0.019957283918569168,0.14337771116632902,0.8291074530389559,-23.95235202517797,21.191956171277223,8.48650160507854,1.0
11.36,0.06297769577105411,-0.278652997496344,0.7378454933405317,13.170808417175301,-57.9577253111199,-22.574463223274954,1.0
11.38,-0.3023731432199209,-0.01092974056865741,0.9468422133990912,-43.63570697541651,9.93044139017955,31.928517911006676,1.0
11.4,-0.1921661032709202,0.2775066626057243,0.936412861514071,28.466325417666294,-30.959732467125296,-46.98815516625489,1.0
11.42,-0.29314329742802825,-0.16486743258265749,1.134075874649636,-0.7954634407957171,11.242435582173632,-27.59895082801036,1.0
11.44,0.11804798578490297,0.236646104924467,0.9096761647579314,-31.456892374366724,-30.41275434285275,15.712838253200708,1.0
11.46,-0.26117108081023616,-0.2120113852072765,1.1710908817034245,24.06635279765812,-9.161298344864536,43.95009507287757,1.0
11.48,-0.2639139616654478,0.017679631484557062,1.0758290801462462,-28.85342877039456,-51.236805568864256,40.44900075605232,1.0
11.5,-0.11971243510218947,0.13729320975277887,0.8327835548242675,-20.58012510753805,-38.99431150092897,38.91738900007073,1.0
11.52,-0.15663788064026804,-0.27741219119870475,0.976562114622382,-10.81551661534387,-56.25724744671169,13.501443738683239,1.0
11.54,0.19828391405985948,0.339743040718958,0.9652488869355191,-10.543952142745962,-48.22350770515716,-43.62720583921348,1.0
11.56,0.14163014951136826,0.3030636234885552,0.8539688550733069,-20.52366054436534,29.773695084505775,29.13537244765915,1.0
11.58,-0.18678657253969577,-0.00676533715895079,0.8488014124176865,-16.171509245883904,1.1226209821786357,-18.087784057056826,1.0
11.6,0.20406401814376085,0.24246274781358312,1.0404977657477092,29.881401121947768,-11.715588038177836,4.490846671755988,1.0
11.62,0.06459590640517318,0.06264504412929937,1.1354169440069581,28.519972259101287,-22.33750498186756,-5.957183243975257,1.0
11.64,-0.20638724137444553,-0.1066412206036264,0.8185989529438514,-46.82908832530211,35.630437550288974,-23.298256483969595,1.0
11.66,-0.329842977860116,0.07883077916287187,0.8904896196228107,13.47882945551796,20.23159329482206,29.11022624919724,1.0
11.68,-0.09604373856177993,-0.055261237749367996,1.2707222868691619,-40.65466819229723,-53.08004940348459,-2.2305923780207744,1.0
11.7,-0.24175909891248298,0.061493072075127435,1.0069694886832912,28.990636213542192,26.08217966039843,46.134183744501165,1.0
11.72,-0.19082104128002142,0.29368098955933164,1.1896962192906404,-30.78218602661423,7.486490891385205,-22.717881636280175,1.0
11.74,-0.13901012697044046,-0.04620012543827744,1.2216859481924445,-19.06122004201311,47.57986569714766,-33.014161878922245,1.0
11.76,0.14533600270042527,-0.13930402571746334,0.8582533257033389,26.08660565314761,-20.086317298628458,-34.73118469086117,1.0
11.78,0.023361807654708276,0.28196829134122076,1.215164112602421,-21.53348567364201,-9.908789040544999,39.51579088196545,1.0
11.8,0.21466747317084528,-0.2160314063470155,1.0850319363921428,12.581109540291484,20.23529761034212,-20.02093252786534,1.0
11.82,-0.0293744534834611,-0.17133079463010323,1.0976678810976264,22.891623422147443,8.168342062346472,37.03232467055449,1.0
11.84,0.27367934363968716,-0.05770705962333028,1.119936302405441,-33.914633040140714,-40.20013407629009,49.00809169825642,1.0
11.86,-0.16431728910943247,0.08087686996718367,0.9886889422940527,-15.614497589804383,-19.7316816500105,12.66459756842125,1.0
11.88,-0.2444892969178673,0.09056244779609761,0.8689488546877053,29.39597001606414,50.05605542794263,-0.20956071646492225,1.0
11.9,0.28416776513024583,0.006491514163697337,0.9124669915460653,-14.006388030083636,31.33849613789685,-21.061767454515643,1.0
11.92,0.14293706558964372,0.22916181939321661,1.0479992274261278,-32.68577236383976,-3.857562402051823,-1.6379923825270026,1.0
11.94,-0.03737787234473101,-0.015741296326287697,0.9033088772598429,-49.478072072216605,29.918721577432496,-23.03495707235416,1.0
11.96,-0.06706461139721592,0.24929264904117387,1.0173560014541712,12.926518421061566,-32.92440868951882,-50.57136637899737,1.0
11.98,-0.03392028634349902,-0.12810572638647244,0.9063516008847854,-38.432012972269945,39.54221300012517,-12.47469882565525,1.0
12.0,0.19689133349473048,-0.157651337094731,1.061902421197659,-52.34864720119191,0.3720783154459709,30.93525343402312,1.0
12.02,-0.21502991267815222,-0.15654947066878855,1.0480063194409213,-0.6565401555893149,-36.668443613480314,18.79775642271204,1.0
12.04,-0.16575804177323938,-0.06012886470331935,1.2402925704827532,35.47826451004882,-30.325855795900576,-4.545037233406337,1.0
12.06,-0.18612759052770128,0.13189145582215409,1.0194950606918,-34.02023365663853,-26.426744152783044,36.45518639718084,1.0
12.08,0.06454491089578936,0.21884800692005038,0.8478882736370799,10.73948561502254,14.47661156777124,-37.8941085754893,1.0
12.1,-0.22036854397292682,-0.03619884507534471,1.1062034398605063,33.36316691041029,3.428481897684533,-20.593968729519904,1.0
12.12,-0.021527823984078952,0.23127128596684118,1.1752006870689158,-42.87400390481485,-40.89087770445315,25.11964823363641,1.0
12.14,0.10243855925686807,0.05912378756799708,0.8725318613614048,25.968014795881587,45.92236463779188,7.9903230216968115,1.0
12.16,0.2540865412643788,0.17413382628900512,1.252916826887569,-19.148318282458604,-29.35088377550728,-49.262893679887284,1.0
12.18,0.10887850560623705,0.1875329090848224,1.1940132735781306,-44.835324435418954,25.781918908562705,34.89370466853721,1.0
12.2,0.2922318080895608,0.10626301068953284,1.2236491982776383,45.862748001561414,-5.053625770823455,1.9700167140342275,1.0
12.22,0.1397657274674952,-0.26827025918102476,0.8277992282741548,15.140194357756343,3.382886984448165,-11.11063967342007,1.0
12.24,-0.20991667072523415,-0.280072248527016,0.9953875474279273,5.302991128668474,22.344208898443775,-40.98229671536391,1.0
12.26,0.0011150350469487924,0.24912272091062593,1.0240709658998342,-12.107495452757279,-9.124800231023674,-5.747714916170377,1.0
12.28,-0.030780194498336327,-0.19546101221401813,0.9272628960587562,2.195636756891897,17.858942154856383,1.3041249939230033,1.0
12.3,-0.2769104659674568,0.18279463350210096,1.025520998030429,24.406290793182187,15.057954245839131,-37.23803788942067,1.0
12.32,0.1681920717017345,0.029253615496017203,1.231889440019301,-8.084186320134842,32.25344592721289,18.328713830788466,1.0
12.34,0.0791344346530893,-0.24876680692239833,1.0144181355995752,41.727703789243265,35.857456661203344,-23.260663573228847,1.0
12.36,-0.1757749616535053,0.11319288194126953,0.9867196592899654,43.86301999907202,-59.45885441604389,44.824707667260796,1.0
12.38,-0.19964314052774917,0.3354858103521624,1.1142574236005856,-22.682834834976546,44.15645125205263,-27.38185587555032,1.0
12.4,-0.276498101509988,-0.10711847646924624,0.8629560948706034,4.71929595435948,-15.18349707616897,-35.75769297708046,1.0
12.42,-0.1574141383834232,0.15948572292940377,1.146926428902804,2.932318231074559,15.91856903466206,42.491113545568936,1.0
12.44,-0.04423458905335945,0.2583975093316088,1.1014448878625895,21.214177057082473,-35.680809177204715,31.069973619906172,1.0
12.46,-0.22982763744811407,0.01863604476694953,0.8689645327597656,-19.303256689533438,-25.267890888034337,31.836261182382245,1.0
12.48,-0.14611618544577815,-0.02079416578824244,1.0669507148679056,3.311499795394071,-48.12615792926228,-16.599523831126504,1.0
12.5,-0.0883182192581738,0.3137892092545279,0.8830558492015895,-40.819983441376664,23.81229027490057,18.418380507698863,1.0
12.52,0.17768465317673188,-0.11647285731422785,0.9782618039657451,-12.627126487586176,-16.99416810212878,21.224678669205396,1.0
12.54,-0.16381117124351366,-0.3635299533033895,1.149539049884095,27.76850379447363,6.758029577819691,33.45804729612878,1.0
12.56,0.23142114413354303,-0.05253236468180121,1.0381145962988592,-45.12050479488229,-18.448059063663198,-19.508207786459423,1.0
12.58,0.20508384816278596,0.0037021635857536206,1.1545799900783673,-36.48569310230218,-14.50169438928215,3.7282498968149054,1.0
12.6,0.03168568357850899,-0.0375135568862505,1.0035101172632714,-10.053804509359056,3.964639851742639,-6.16417253737521,1.0
12.62,-0.21315147220220418,-0.02822770907741025,1.0232365407345783,31.43074441442012,52.85159918261308,-49.849411568307055,1.0
12.64,-0.056080079045548806,-0.13972691803144843,1.16801569000598,17.257911510586524,-19.88499812723356,14.539091866390605,1.0
12.66,0.0467789905211904,0.043938204065504124,1.0006008824812447,4.762595904761749,-36.97759879085046,45.98341354326763,1.0
12.68,0.06217821652335363,-0.26509047995928503,0.8849560290826548,9.84665517015764,-22.6365705588834,-2.2039972981988383,1.0
12.7,0.06571289481574856,0.19389183829564544,0.989719158415044,-50.566968336609975,5.868635305536821,-30.29418503871383,1.0
12.72,0.005011258971473531,0.12204774709919247,1.1778963967292297,11.747281712399813,14.403852131534077,41.865816188368015,1.0
12.74,-0.1251710627460681,-0.1595901393168016,0.9813941235959162,6.917886518937851,35.84266805927167,4.990115932516927,1.0
12.76,-0.07279200570095937,0.2712278755185312,1.111496061085583,14.133269410014021,-19.666688443454472,49.43848111010647,1.0
12.78,-0.20635099621262115,0.0424249649733935,1.1035993219935836,-23.99559566778808,17.667477049898075,32.6130665341171,1.0
12.8,-0.221560722868998,-0.050800652794718,1.0191552702852158,35.99954047700079,-31.977164637016397,10.511329582899464,1.0
12.82,0.11734896643508354,0.15737678987212203,0.8560079277739163,-24.56679210894059,9.95476006956784,20.095990901604083,1.0
12.84,0.14937781205291137,0.16963077593539727,0.8722247502009578,-46.50623826369008,16.135536841173543,3.107292513781731,1.0
12.86,-0.0292579755095599,0.12242568974078434,0.749136309277692,4.367452042672268,-49.24368703181367,-11.019460324752176,1.0
12.88,0.061907906687231194,-0.01715210507042412,1.0604036618316748,-29.127979100876498,-34.503259135123436,27.118651017648247,1.0
12.9,0.12486612448671727,0.19624353900643424,1.0238077594993258,-13.490813341831366,-42.87570880638946,-8.818381602419631,1.0
12.92,-0.28827211909843864,0.2594167987031579,1.0037473384644404,16.333830768899208,40.44958515899792,-4.330314437826487,1.0
12.94,0.32484067023210395,-0.026400495221860443,1.0278345254283823,-21.632341851916483,26.819899379349426,11.833694811867524,1.0
12.96,0.07033302165051858,-0.16609906636800598,1.0216111428823689,-51.4182099978493,46.41232616272278,6.219762774283318,1.0
12.98,0.2674436259395111,-0.18008831255624969,1.1441811721776074,0.20730296864677378,15.451293007392648,-26.023473442368616,1.0
13.0,0.18137775052074848,0.09467307797364687,0.8766595974893399,-5.368641816356782,3.8469763031976547,-28.929243123349647,1.0
13.02,-0.03830152183824148,-0.009407455656660159,0.8451693989849065,-17.885081614805486,47.869629057673905,-19.267944716761725,1.0
13.04,-0.11021862730108256,-0.01180659576346356,1.0830705156429297,-38.527747895683575,19.448935862068506,-21.070929461836393,1.0
13.06,0.21229032049454638,0.16565876725253253,1.1555191430452776,29.37945001341977,-39.51750102133301,-40.60723325774467,1.0
13.08,0.31366109984650475,-0.021107669774153195,0.8123922877589816,-26.337105850921738,-37.09023930356589,41.679914173620936,1.0
13.1,0.11284415693203087,0.17111526125209933,1.2193022813192855,23.05226975733926,-14.743714874066665,-30.6717189527263,1.0
13.12,0.21941979986960844,0.0860362495923538,1.1935762620289567,4.763521188059283,-15.557395809050083,11.701979497786144,1.0
13.14,-0.1561797122654614,-0.1885319786706895,0.9809959216054144,-22.918460330466047,-9.8809254234003,12.91961891018337,1.0
13.16,0.053033304593468306,0.17489032782539388,0.84317764541767,47.78464207586587,-22.141140102157127,10.03860513784485,1.0
13.18,0.09652956733089676,-0.16096641012429275,1.0740592978266823,21.31185050231122,-27.917181433459113,-43.513225690654565,1.0
13.2,0.16967070341816112,0.15969918312278275,1.105162928434674,44.249071162972335,-21.6491759649435,29.763789625616763,1.0
13.22,-0.15115137347959207,0.13707318043678918,1.1730243599228103,-25.884759811476826,-39.7392122153063,46.985723304026855,1.0
13.24,0.15712586808652484,-0.016732996175983103,1.034237826585526,27.59532164442373,1.2490128739645467,-56.55639310614665,1.0
13.26,-0.32473826072654516,0.005299189501127094,0.9852781347535942,31.303725868922914,-26.822236909970357,-4.663228063211683,1.0
13.28,0.12823516166866405,0.11534757878470969,1.198435747895111,-8.098030486972814,8.158032454716444,-12.518547137358405,1.0
13.3,-0.060175079548829405,0.09260266618886241,1.0977740603267199,5.808158024006598,-42.227296475933805,4.492352810634839,1.0
13.32,0.24959795495268858,0.1967298551444634,0.9302679658166736,22.25311181424733,-30.441305625776316,47.51119439252865,1.0
13.34,-0.2674637258367101,0.029105871598089122,1.0067947942389304,46.95736060185845,38.40032012019485,-46.02484413948477,1.0
13.36,-0.12268478372394179,0.17062561734497136,1.0113462726933262,-20.24276155216677,-11.172553007728723,32.64107199318117,1.0
13.38,0.31892506630199885,0.25880774577724736,0.9148303664983204,14.787162527827903,-48.81135337173481,22.193219128439456,1.0
13.4,-0.2075382356956951,-0.08677838716906858,1.02549412172136,-33.078810845174495,8.4562553489745,-10.120357561912849,1.0
13.42,0.015665274823786664,0.1662668998125706,0.9343860594617498,49.46884415559306,-17.166200104997753,-23.612844297636794,1.0
13.44,-0.337227908935468,0.10531180127534913,1.062533217452643,11.166454543245425,27.047657245140496,-47.71497479923879,1.0
13.46,0.24798702873745732,0.01802846842393087,1.0032515330480014,23.422671208032817,-17.9339103145237,-44.061030107601745,1.0
13.48,0.1001924154592335,-0.22168212485725083,1.0971774695968795,1.4980118937547051,-16.49195613388528,-8.806300988425258,1.0
13.5,-0.10135813817246037,-0.006023686886634547,1.0095071227325223,-29.160297590436144,-9.176879861172559,67.11297122544705,1.0
13.52,0.14493429267727695,-0.05954213847855923,0.9408933050793845,-39.788557100636424,25.1838834677093,-11.903445052194698,1.0
13.54,0.032997522069826105,-0.1610991277054279,0.9968096927789902,-4.3269214466089245,-34.7772823284093,-46.08941331899589,1.0
13.56,-0.1416501440024451,0.06082653830640629,1.0722341998477423,28.957261739006665,-43.40207692170105,-3.9630254761539536,1.0
13.58,0.26619648354505693,-0.21348928121829924,0.9139113210198864,23.611008390940828,37.03859761243987,29.432519013369237,1.0
13.6,0.18082203489774368,-0.18998542397220314,0.7952343367261061,13.15442817994138,22.140938209203505,-14.981386061291232,1.0
13.62,-0.0667247741164775,-0.17565156585416233,1.1820930500761064,28.819952830421247,37.63959222912078,16.49834361254435,1.0
13.64,-0.20971269856076552,0.1420520026017807,1.1171614963964507,47.71923369322104,29.380323636199453,-37.507855211320425,1.0
13.66,0.24883210621151006,-0.04780108657328721,1.0744506702587877,-25.527340707491227,5.3546658461210885,22.46399316109202,1.0
13.68,0.09805290439986036,-0.1468895797779097,0.9773685659911876,-34.38307570149133,37.33249758699691,-35.87285956046459,1.0
13.7,0.30979377939911706,0.20205374719634683,0.97282846470241,38.37038021710104,-0.2401203273941206,-3.397171911351484,1.0
13.72,-0.16136918285275698,0.19396686745123032,0.9175810264581923,-9.03766957102786,-24.409721492919044,-20.60032330442383,1.0
13.74,0.09046176155809824,0.11721576560316226,1.1253110895727123,23.2726342379214,20.778276812876914,-14.490079698336357,1.0
13.76,-0.1479422825256011,-0.3278409262652664,1.1663213620426298,-22.78062174774016,-3.0145301338590773,-16.716925203753995,1.0
13.78,-0.3124452522554957,-0.11624958516135007,1.170826369632508,27.350068224825634,28.715030379905706,-15.328263687531162,1.0
13.8,-0.2520462128780372,0.14027658321186076,1.2230171955609248,-3.710352585986273,-38.927543729104514,-10.695041202187243,1.0
13.82,-0.04233652113260285,0.014791695776869625,1.0714350633312386,29.990638203240096,-33.281591818059596,-4.954475677802975,1.0
13.84,-0.0982132935030174,0.36302938640950133,1.0236026367820712,30.624625287048648,41.59274619116848,-34.865892441035584,1.0
13.86,0.26386541090801025,-0.07229160383711268,0.9457514707685528,-3.7952825707124314,10.334676535863844,18.689335474259234,1.0
13.88,0.24129935559049576,-0.03523431891592345,1.1493985523165349,-21.80747616750208,-15.161082371604458,17.458625026048875,1.0
13.9,0.16872051796244406,0.11473885858752242,1.0358867583862406,-11.723745463269797,-3.6506065963403045,8.491849319977819,1.0
13.92,0.1219877645156203,-0.24127198045527692,1.2139267220704033,34.433266407793084,-21.665725436526976,-17.55913762181075,1.0
13.94,-0.03542079955419039,0.17999927862957177,0.8174694262531061,7.99311074050022,16.147326931105493,-15.012747932494738,1.0
13.96,-0.1692485962116309,-0.12360700413186237,1.0519775069388133,-10.931534386975029,-6.713260837249596,-22.070035005977523,1.0
13.98,0.08483679733960257,-0.24468229057634777,0.9735652726895723,-18.54682474504894,-4.172048365701913,-26.24596715230671,1.0
14.0,0.22153787068524664,-0.26164269602754275,0.755558817174247,-30.0520882305937,23.987579385147342,-45.83800077239484,1.0
14.02,0.23722720137918613,0.27992115264006695,0.9700803017113379,42.597349325583295,29.852420403928715,35.98918378290864,1.0
14.04,-0.03376305295649962,-0.31555511098012523,1.0089432041066821,-19.729877279386756,-29.656394338367818,37.9619923334995,1.0
14.06,0.06426125522126666,-0.15043812752748992,0.9000976717518868,-20.267185373356735,-11.125077489821912,33.248385340112364,1.0
14.08,0.1641852684477153,-0.06355690064765092,0.9735460245415423,-39.39637965501492,-30.513407786958986,27.136834875774003,1.0
14.1,0.10446427279035332,-0.2583210139830957,0.9545084787539837,46.6533461867306,30.80196122008877,-47.520877693970306,1.0
14.12,-0.13011464673512538,-0.2805654292945978,1.007127654495409,-36.55574799488625,12.446368316189172,-42.528435046630534,1.0
14.14,0.09832490863305526,-0.21767705223117678,1.1003018951149584,-52.76378460709702,-1.2911272876944322,-23.217501431819617,1.0
14.16,0.3502291435847341,-0.004985826410948843,0.8207150914991218,2.857712549929186,-15.89701161275009,-15.880567694633232,1.0
14.18,0.03611919006575688,0.21427790138741384,0.9809359917460795,31.92655670984095,-2.118835408634318,36.78287121082746,1.0
14.2,-0.17974771794498198,-0.16450010146053012,0.9256541590337318,-13.340370525844971,6.025901654102757,21.029161941720517,1.0
14.22,-0.0598547853055028,-0.11509110652726791,0.8832915870651684,47.80818225129822,-56.337355624250634,-51.553308217472335,1.0
14.24,0.06131415504731888,-0.18826071223341703,0.8726074584209089,-8.285605373641879,4.521357094948977,24.68804332545753,1.0
14.26,-0.22764654115216157,0.32111688212974604,0.7988008297486129,-30.833518348087566,7.584380935904276,35.32292952662666,1.0
14.28,0.057361702981279086,0.12811148002960532,1.0614364880833045,-35.08289986139232,-6.739391576883082,-19.38956452107055,1.0
14.3,0.3232553735120911,0.20928823754398243,1.1001648462044151,-1.2115303984211416,2.070689958804003,-9.965303419413768,1.0
14.32,-0.2163826447489526,0.030513138083448493,0.9560307943985609,44.144940741297916,34.717709405095135,-41.27838619067309,1.0
14.34,0.3206902997961499,-0.030298995555447125,1.2030246480937437,-4.054284003843488,41.681876832436124,22.567552145526367,1.0
14.36,0.210681668968938,0.04450318161324434,0.8221151700158983,-41.04289849093054,15.199214276589593,-12.76910602518926,1.0
14.38,-0.034399976532381915,-0.3211117174791292,1.084838441071518,36.86217610007492,18.156873078221427,23.10907874360322,1.0
14.4,0.15191801305422425,-0.25974410582640034,1.0286696493474003,33.41956983516847,35.50611365023955,38.629579739272295,1.0
14.42,-0.08798892543652272,0.07753707706137201,0.8272439686252747,27.78120140171663,28.005750459055207,-40.31410270233382,1.0
14.44,0.2238005352416465,0.0066812814373285005,0.9988561845694255,46.45495323048681,34.508929513492625,12.299003104999347,1.0
14.46,0.2636641063825637,0.07559359884148231,0.9181050566782115,40.83092818254331,-0.9285278620454775,16.43924926527655,1.0
14.48,-0.008451981943524941,0.3359525551908156,1.0230894890898885,-25.914816694362294,2.9958679098808405,39.34670540680682,1.0
14.5,0.16713998354200008,0.1310790928777645,1.0399163329431085,5.891308274940233,-23.21883624046244,-40.8592095412501,1.0
14.52,0.30439252722337873,0.16729074199562438,0.7940389870633104,7.096816321072344,-44.386113723403504,-27.001188355194163,1.0
14.54,0.14422261331197372,-0.059476319162726124,0.8272622308535618,-26.18180400841039,41.00128652197175,-20.147039389855102,1.0
14.56,0.25783824920225895,-0.04889373350470473,0.780950822344234,-26.513646951044112,36.602268683193856,-4.203774172540089,1.0
14.58,-0.15142779381021174,0.06808988459406623,0.8845146744718271,23.592878439413337,26.72168117844487,-1.1556704532523034,1.0
14.6,0.08315509201243962,-0.12049792359822786,1.0764464919588193,33.62365984048146,0.5100652455968433,-50.40763208965235,1.0
14.62,-0.14778115086958188,-0.08857838971178097,1.2021680444599416,-27.285860539350637,-52.156769139500824,-1.621280192861502,1.0
14.64,-0.02074244292360153,-0.1080935137163556,0.947031570522711,-30.874191733949385,-18.607302128389804,52.176674078071564,1.0
14.66,-0.25357456255378286,-0.07299890842127743,1.158370925378916,38.44685944823976,-5.773484442589227,13.780932612079976,1.0
14.68,-0.08163211451059688,-0.26356783366962827,1.0086893289622711,-41.56217446335965,-25.65786408716611,-36.22900331060438,1.0
14.7,-0.2792386364620744,0.08559550216008238,0.9074589721003009,51.26788378473373,36.71152750285548,41.86447098544232,1.0
14.72,-0.1817307380814758,-0.2861380677857272,0.8405280957004029,2.2021979654010693,25.71688884946132,7.335086476400717,1.0
14.74,-0.10369423047926253,-0.09104654069607619,0.9016461543418707,31.650333296261206,41.99667340132247,3.1139212113731167,1.0
14.76,-0.11222740909990653,0.22915386604066607,0.989824900412723,-30.87016279275819,19.374184906468106,29.397154419962213,1.0
14.78,-0.1389918448467956,-0.23942212201038454,0.9900811044317878,-7.891051968392606,-2.376354768407368,-8.535475642494646,1.0
14.8,-0.05639444591207246,0.06795506327038156,1.20488248060091,-47.940310642750035,22.005148204194594,33.59889192187732,1.0
14.82,0.2536913660007252,0.24618825436924607,1.0201847479853683,-30.68087447288372,-4.619169706912157,45.03025563818113,1.0
14.84,0.1485185585335602,-0.23276133539097427,0.9703243794317458,-10.343317704878686,31.566317594453594,-37.825656493477744,1.0
14.86,-0.23610231319238714,-0.2501866191137695,1.1883428581067739,29.664113816494194,36.170110411791896,-28.96363252772315,1.0
14.88,0.23581497107950508,0.08105459804018803,0.9674430954213289,-32.13688696580506,23.983391921590233,-13.879933617122946,1.0
14.9,0.21641505172039527,0.010801158274750026,1.1784675965077447,1.7326949302451908,-48.14981717142977,-28.577927305861046,1.0
14.92,0.3806250794306095,0.22047051633136186,0.7943991468258005,-2.4181106870357345,-29.567854823811363,-30.727279449853103,1.0
14.94,0.24850268291182898,0.18086043288547277,0.7880444578649177,46.596847298112536,37.02881889442941,-6.270665233057992,1.0
14.96,-0.19151355835511666,0.31901576731090797,1.0030628341066135,50.65057328263291,-1.7686446585451057,-9.886773412986985,1.0
14.98,0.1315976639719676,0.24805290818528467,0.8890116461650417,-44.5045259179926,-1.6443115647857294,-33.763907894808,1.0
15.0,0.16486393278393727,0.2083667827725514,0.8349230811828112,-9.917878712302326,47.57756595365369,27.86860467135454,1.0
15.02,-0.048447017487256265,-0.26418254250451545,1.0747212741080836,-6.2146634809281736,50.26291117368392,-12.005573087938764,1.0
15.04,-0.33585603094670624,0.015829694124331356,0.9065902321521575,-36.19513615984134,-36.75863021385903,16.014421475447584,1.0
15.06,0.17879057352147562,0.134710580636975,1.2079590097681037,6.53691965460553,36.08216389760478,26.68002075513932,1.0
15.08,-0.024200952816701878,-0.2175934097628058,1.027577584256768,56.02212194674427,-28.543768552919584,-2.60580875953963,1.0
15.1,0.06573804033540263,0.11052379702367796,0.7338898150677773,-38.70902954277359,-32.18985109406516,41.31730052256629,1.0
15.12,-0.18483277658555972,0.24315221208521848,1.1926007243968997,24.149822236453666,-22.294745457527796,39.473685816932814,1.0
15.14,0.25688751369340634,-0.24181810095279638,0.9627254862856611,53.63259540929185,-23.369522465971656,-42.25201315876134,1.0
15.16,-0.12155194992631627,0.01642568777245787,0.9546371240368658,-10.45489578118084,-6.0162278330434145,12.456203817301057,1.0
15.18,-0.03543416941125386,0.09992496141909667,0.9134832642888637,19.965095517307965,11.118341254205319,39.06103481594957,1.0
15.2,0.36652335870591857,-0.1766860240582136,1.1004742084740742,48.59962938315098,24.966086597701416,7.6405546170882825,1.0
15.22,-0.07062698766746844,-0.07244087054486262,1.1797242388773452,-7.1734944816444495,-30.880058692928547,0.45878285577190603,1.0
15.24,-0.18383881221928275,0.16997469570192064,0.9134212717378078,-41.11174505956215,-18.329739940477133,-24.247980897626917,1.0
15.26,-0.2991305534275851,-0.031698831343175846,1.0531491878842858,19.35969144345431,54.004444206868975,13.343396700219916,1.0
15.28,-0.18278603518331654,-0.16847830151404958,0.8001428275695519,5.829017858248687,-57.63124525897656,-3.2015555129171926,1.0
15.3,-0.16200930806190644,0.3083222659705219,1.1286998704474567,-1.4712009256312322,-25.361936487731754,38.02285681220781,1.0
15.32,0.0989288781978384,0.0678543457201637,1.1941762451426219,44.73314676065956,27.435245462162985,-22.707434276778994,1.0
15.34,-0.30439788021232383,-0.11491929736483801,0.9735307451403623,-3.619571892808503,-50.041080453792496,37.71416020450624,1.0
15.36,0.11424451571524998,-0.15426055633137536,1.0909298127023588,49.964733156262206,37.94162202954161,14.508609308034488,1.0
15.38,0.2115870427698418,-0.023484072135115594,0.8389644280706349,12.42277750123108,12.877108662106338,-17.184227505369694,1.0
15.4,0.22663389655113206,0.19765696896802298,1.1844055635355304,-36.548823576729525,-44.47925076307019,-20.07877858975483,1.0
15.42,-0.0003352464347072502,-0.16865410796595165,0.9305470955820281,21.8873717220611,14.777572800773134,-37.72786129631386,1.0
15.44,-0.1786138173862976,-0.09248092204934424,1.0510463418906122,30.193584317299234,-45.92282191090095,-38.81845788791271,1.0
15.46,0.17429457807625184,-0.1883354236188156,1.1595015121032695,11.203656373049462,23.99360970736599,29.769540706029538,1.0
15.48,-0.12114801847734259,0.022217555418561918,0.9566521191222271,58.366352220610366,-18.560118014326594,40.63135157695636,1.0
15.5,-0.1090757967423304,-0.028956423713752837,0.8453364406933112,-18.028134070732598,42.19626990509578,-31.693817337739947,1.0
15.52,0.08182782764533897,0.03060751312290931,0.8066079490617923,-0.12347178121645586,19.034237426762225,22.78351941736794,1.0
15.54,-0.2513617327739135,-0.0011547223331138945,1.0540422775064822,43.80272026304248,49.955436320522466,-30.467989736109107,1.0
15.56,0.2672291611041384,-0.2276705379442829,0.8750782873996124,-40.833974461883656,-8.728658714702402,-47.250799801719815,1.0
15.58,-0.3064778549111389,-0.007891895699667435,1.0547670399368012,-16.843942781478255,-19.203482961345976,-44.44891694013876,1.0
15.6,0.15459904341183184,0.10624212710669054,0.8600689905208521,-44.33052344754518,36.17803518985259,-17.421942542928928,1.0
15.62,0.06506858738428381,0.2755561179815251,0.8920825960239038,44.26963044766248,-47.52781309360525,31.058178719770815,1.0
15.64,0.09096112699692138,-0.10488876211909663,1.2135733441980567,29.1522258674188,23.224963528794536,-28.62325881223959,1.0
15.66,0.2190582038538265,0.12531017703905686,1.0180371245370272,-33.153567738555125,-12.12625876989737,40.98443464634581,1.0
15.68,-0.2573938498438414,0.19150831482061134,1.197390427767275,-27.492887459118567,23.525817001121,33.706157279538864,1.0
15.7,0.1015992730281533,0.0724276864460835,0.9545656450366165,35.38735061299798,-28.43337909384687,-2.8386805209134867,1.0
15.72,-0.1146643578023757,0.07932838582218793,0.8886657173141974,32.03442291412265,37.79385007566599,-38.094918906998466,1.0
15.74,0.08458002020194882,0.18228073511592174,1.074629699608514,-59.881747731463335,-13.379349394292628,12.70069262335043,1.0
15.76,0.12433494324728082,-0.22459712613097912,0.9866261295207603,-16.146294271641718,53.83579533030613,-32.19262168997869,1.0
15.78,0.3024847989335527,-0.01637120881285036,0.934075566009945,-12.196962315153113,23.574574061756756,-46.0241573880322,1.0
15.8,0.35119200810793916,0.10608940172220366,1.06612147943263,-8.222490988236615,-45.43567653247208,23.39114290144693,1.0
15.82,0.10053017601703952,0.25002790406112685,1.098518131906087,-4.199814500202543,21.261758123437456,-16.323042363761775,1.0
15.84,-0.2460728633588229,-0.18250116554471188,1.1797120900961633,23.319200609659404,15.27624705035593,14.178541297927511,1.0
15.86,0.1338760164209792,-0.3171671732848667,1.0466061452551825,-9.32797700657946,-34.512098727096024,18.987670443533148,1.0
15.88,0.022943348563802445,0.19911753676256577,1.0500663190799724,4.464160415557359,37.249235535537046,-27.866255340901134,1.0
15.9,0.13139962237354164,-0.25660388289660246,1.1337751565710108,35.16541258979343,-5.796578609910879,-33.44670702190986,1.0
15.92,-0.056526025446495376,0.06461403044790719,1.1192685172742887,47.34148202159935,6.634184384128359,19.761706008490016,1.0
15.94,0.19143842620496418,-0.13040497872846185,0.984174963602254,53.75912790606061,-11.85015820690693,-21.193541774825132,1.0
15.96,-0.04996650676969711,-0.01133137150044199,0.9715949441946865,-37.09732240573094,-5.466000933115815,36.12276189207105,1.0
15.98,-0.24189431357169547,0.30866882135146284,1.1117655724425308,15.46061745873223,-14.019093091088223,46.6639526514008,1.0
16.0,0.062240153436627504,0.31398018309839665,1.0884080975763395,-13.871892619141828,1.2860760359674845,41.38803196437804,1.0
16.02,-0.2291626495066515,-0.002466067115454537,0.8669885587188206,-2.331192220599709,-40.057530728858794,-15.099038971449945,1.0
16.04,0.062132574952478196,-0.17382533878683645,1.028235569035703,4.917954357350741,-40.471955077327905,6.018000074748462,1.0
16.06,-0.21515987210380572,0.2306162827412732,0.8293498692427215,39.21621808209775,-30.141550535987413,26.7679017291418,1.0
16.08,0.29438057648121885,-0.16502118277684372,1.0986012275264565,-33.04673816852957,-37.9295670441523,21.1592274707818,1.0
16.1,-0.2568443171340219,-0.2337658201317993,0.9902215211191366,13.605539479999035,0.8306349343029011,1.0695223234237603,1.0
16.12,0.12337748041320984,-0.054314306815679184,0.9489206444252245,28.25975513976765,-42.07351165912131,-32.03042171806998,1.0
16.14,0.037441146352697324,0.19284070962948924,1.0780063889019904,-54.61680530023516,22.940945657377902,-29.13093998586298,1.0
16.16,-0.12299850908285863,-0.0381509678236745,1.076599338142438,-13.821088732734696,-0.16873645607182386,-44.96381815720797,1.0
16.18,-0.039115535895006937,0.026770997453814477,0.9227513360621407,33.999181832234136,-35.94119096337004,-40.686370168280135,1.0
16.2,0.20101869247681958,0.1760920791191505,0.9402847218035949,16.90847617976779,-40.11103072992388,10.069196919353619,1.0
16.22,0.03815079675439017,-0.27791314723773747,1.1578327061529814,4.634477601615048,-4.199224934972874,-2.962596432999158,1.0
16.24,0.2536257514747416,-0.031080751747631266,1.0100109013234515,18.549306071748422,-5.176159522241203,-39.99139904284614,1.0
16.26,0.10408558454433525,-0.07471461357087418,1.0670075921850628,-26.366625041660093,12.021734732009955,4.115917129058538,1.0
16.28,-0.047574937662612365,0.0832987501932739,0.9929079140205896,-27.016325665687177,-21.835915703868768,-14.549742542930343,1.0
16.3,0.1914193669301748,-0.16712284821806142,1.2021684269464006,42.70893668201023,-31.651712799264644,27.965754040237197,1.0
16.32,-0.1515747964980508,-0.14054155987354494,0.968648097678748,6.761349600188498,-50.348608436689176,-26.975593210896545,1.0
16.34,-0.0013679076425194836,0.25301547324069695,0.8308538697154082,9.746524292083386,-2.3036270264741128,28.794891138443667,1.0
16.36,-0.2586269859046348,-0.26062854604152497,0.9835715772304398,-42.76454127503475,43.76458182925316,24.13785161546634,1.0
16.38,0.0633110999243035,-0.08872586390547742,1.0968475062757093,0.7767202082930078,-16.745380638140944,-24.48810894672983,1.0
16.4,-0.23213566208789016,0.11362082502973106,1.0242029174570775,-1.5327804040769815,-13.721578798774528,28.43389540629241,1.0
16.42,0.10027429211429031,0.14512921416665822,0.9369779856072311,38.91929928109374,-6.524644445120105,-38.81284522453367,1.0
16.44,0.023341515464746797,-0.04161754032325167,0.8796323774030412,52.48530830595238,-33.221731471587134,38.27651778477032,1.0
16.46,0.2180702600746466,0.122415514829975,1.0369106197889588,31.385999956871878,-52.97519203564181,23.735158972760537,1.0
16.48,-0.07663089192716521,-0.0687495420030073,1.1285212044023276,10.394521724781288,-11.204303596993878,-8.555606125242363,1.0
16.5,-0.21719810361209613,0.3360236429172658,0.8653559439722949,17.6442630868588,17.108618784728012,36.23639498195682,1.0
16.52,0.028409827013317228,0.06411328229672125,1.0025962277237823,-47.1194969683419,21.397382174367724,-1.1846350437785764,1.0
16.54,-0.08156078348535248,-0.3331352677499418,0.9462263769762723,-44.665114314851394,-16.55018402147636,-14.731929437369475,1.0
16.56,-0.07754065952560346,0.1543792549862043,0.8854934405654811,-10.43116560541361,-23.157466147267858,-41.65552075286307,1.0
16.58,0.16021393922483515,-0.25589058456490854,1.1745980135392726,-21.01782707388247,-37.34007806664383,-39.41814592631826,1.0
16.6,-0.05458492995830341,0.06062067003527062,0.8544840742998703,-23.229740478767766,-17.495699047812874,-24.560739894230583,1.0
16.62,0.12390834026773306,-0.10518726048587103,1.1238041839913704,-48.81935167079443,10.783156927640185,6.107158201267158,1.0
16.64,-0.11018193536093007,0.15566058664527446,0.7876435371038618,-25.915145558239356,2.276800478735538,32.06544635647734,1.0
16.66,-0.06207670616893872,-0.26910704027690163,1.1356217928598151,-33.54074896477739,19.335396208846923,-46.27014882173562,1.0
16.68,-0.29770309535809414,0.3169298771089888,1.2116769664882443,-20.542112874867875,21.040767266895497,27.946205515630396,1.0
16.7,0.16615454703837287,-0.07793161071747538,0.7522522273062875,-39.02399052566906,-3.61968145380704,-19.839957850717802,1.0
16.72,0.004403412011083983,0.06183241337184117,0.9646289788828051,-35.797925374051225,22.791917228276944,24.63278834084227,1.0
16.74,0.127830149064793,-0.14157165650570475,1.100301675327227,-36.79438685659515,18.486767365950435,22.37187660165919,1.0
16.76,-0.10975285495958614,-0.05477436707299316,1.101668377945101,23.33912387242246,6.250988684800522,-5.604998187917423,1.0
16.78,0.2874728980230165,0.2449364571760647,0.8867494362371773,32.20405610722336,14.025684673319413,-44.46526158970364,1.0
16.8,0.020490989210084312,0.22983495248652286,0.9262604809795362,4.37584391423443,-38.83471280511532,20.435026107026104,1.0
16.82,0.02171702525823741,0.2409210539804068,1.138584372975602,-34.475489186696564,47.842121940569356,30.818841255372696,1.0
16.84,0.11556058363675954,0.27843571230059083,0.9919973957777067,-24.87057276127539,22.993842755628787,13.661826472974534,1.0
16.86,-0.261717525644168,-0.3461964986495726,0.8248185926972417,44.375452588684595,17.530103274197863,-20.020458495366835,1.0
16.88,0.022696925550280675,-0.1997775690195447,0.7389791689090304,6.230701719124157,1.0740532112569747,46.495820285986426,1.0
16.9,-0.07867602233093132,0.02516852728208606,1.0047140469235427,35.814966142253354,27.7074505315205,21.040291024549802,1.0
16.92,-0.018278255821704198,-0.16808940404731837,1.235022191167971,16.34601896648904,-51.08211862167229,46.03562321730495,1.0
16.94,-0.0876024096667838,0.28898536676680453,1.069553264177463,-12.258734130450618,10.003656542204581,42.68415197303382,1.0
16.96,-0.32246238492351814,-0.2526238940631911,1.0626518236985005,51.19650073205691,39.1531707553143,-45.94918478942031,1.0
16.98,-0.04567862820733762,-0.11715239363888924,0.8735064942494684,-3.8961285630392872,-0.9632967542369348,-22.201726280671767,1.0
17.0,0.22798381895647363,0.14077926835711488,1.1430969111066582,-40.99562422683647,31.319314888900955,11.927319953556815,1.0
17.02,-0.2332486129774995,-0.10403363932366194,0.8419744060691035,-21.1129856192605,-9.452676445520392,-21.415664760290593,1.0
17.04,-0.3187434135383134,0.015522734126313303,0.9051433605762857,-25.309522793522017,-29.38076641473753,-4.6042552776580035,1.0
17.06,0.04697352088720888,-0.17253874892999277,0.9190275702731955,41.642419901679354,-4.451389969526477,4.903572421777699,1.0
17.08,-0.07587009914561033,0.04183843873182653,1.252072775073549,32.025251904294144,36.591119571198696,-16.58428049983957,1.0
17.1,-0.10714508857427352,-0.01999921539696603,0.9398717703774335,-17.885298052147224,-50.17272569139003,7.895271614349965,1.0
17.12,-0.09224780850626643,0.20017497329763778,1.0957427553850434,-2.697467064831927,4.7260617653289145,-15.676605362147397,1.0
17.14,0.19083682097633503,0.05285263937709562,1.0217596241489981,-3.239953326781246,-47.00664882080066,-15.009249016633436,1.0
17.16,-0.2505201764707046,0.05758429823681992,1.032884325913901,16.853717787616276,-38.44511844552871,-39.02482592004218,1.0
17.18,-0.3156367648246968,0.09121997520186492,0.9778411241435536,-42.27094591594585,-54.2031275984178,-37.95433216370857,1.0
17.2,0.029236087366454267,-0.07040771569166553,0.9732267076092899,24.736698798042372,29.400325343065628,-25.76223188354649,1.0
17.22,-0.0060397789231204785,0.02502300061196683,0.8849108495651523,28.746045196590217,-46.260582913991364,-37.66402755045023,1.0
17.24,0.254793907481094,0.31217445085636736,1.1533936827092648,35.25761626942462,15.251707554933425,-30.604747295614025,1.0
17.26,0.07489212102495929,-0.02386239854094434,1.0044325010028672,43.1494530134802,42.920064245357686,42.58751431410473,1.0
17.28,0.06914908296705055,-0.029924663481111335,0.8275470801919124,-40.477505124702994,16.49812602109463,-11.788793016917058,1.0
17.3,-0.3118025937969615,-0.15018578017839768,0.9676324985983428,5.568364298327296,3.4422891747842317,31.924358393321892,1.0
17.32,-0.13666482002120214,0.13748618137729585,1.0940930114980665,-39.48830938963239,-5.799270582090502,-29.049723041568097,1.0
17.34,0.2886957367599835,0.12394076225011345,0.8699160150581817,-35.463645171298225,-51.66049663790017,-30.483290961351095,1.0
17.36,-0.22264454731883934,0.06462976971089077,1.092559293686775,-34.643577908819644,-15.751424895378957,-27.385077973584572,1.0
17.38,-0.25878131737017407,-0.13038523389918108,1.060924112588352,11.87935875346425,-4.683604737658646,-39.692729863846296,1.0
17.4,-0.00967864258590477,0.12176278712314784,0.8999545978298521,-49.435195605272625,31.573548722763093,7.931584293921224,1.0
17.42,0.06919490635313999,-0.18048835895888263,1.0069678015528556,19.7792960280778,-14.631171821683877,25.254639783777534,1.0
17.44,-0.09148743779056076,-0.22677146879451437,1.027581211138711,39.25835911566083,16.34471695555883,-15.715248446867482,1.0
17.46,-0.16007388850204057,0.050065281807470885,0.7431921766860337,37.51408818394203,19.40854129741942,-2.9024251397626317,1.0
17.48,-0.22272512332739644,0.004479637139743267,1.159728266429723,-5.924570874415049,-37.731779778127745,-5.646999308243088,1.0
17.5,0.14423586348711873,-0.10211239195833835,0.898662990104785,8.796321230578135,-2.453171605478353,-24.87348038874572,1.0
17.52,-0.08899625113923808,-0.10134924856789099,1.033792408932689,48.02742498191223,2.9836159594404768,29.639019371298964,1.0
17.54,0.06859436339283437,0.27906225889970115,0.8690417829024544,-41.62453312122504,12.160563697405312,5.409787020282281,1.0
17.56,0.3345589425960641,-0.09253038243198575,1.1222408058664268,26.92490044417568,38.80749233215699,27.351352048007072,1.0
17.58,0.06901886592538774,-0.1400070271938812,0.9519093301510183,3.3978700182206785,27.597337605640874,21.611280791434275,1.0
17.6,-0.09875616841513482,0.15433675552327897,0.7253828894556036,28.80673259016675,-41.6055405003384,32.604174933704066,1.0
17.62,0.037342338654155496,0.23982600265276677,0.8697508492438654,-37.11539077133277,3.898383145908339,-17.80337016931737,1.0
17.64,0.10507712230278338,-0.2403549595103158,0.7465311468050084,-21.362199466210754,2.2749634091713737,20.840247386550665,1.0
17.66,0.006073230492238707,-0.3451093629709504,1.0039165788802595,-8.462334474116044,12.488497993877527,61.43922589509776,1.0
17.68,0.05690247020119601,-0.2523871890629405,0.9657264362115571,5.517069183043411,61.0382592909053,-37.711710320446045,1.0
17.7,-0.3026973516043778,0.11775042067931363,1.247597734105022,14.513307373750248,-7.2846082108776855,-13.149641024183614,1.0
17.72,0.19632642526263322,-0.07769737354996117,1.1336441103760453,3.4728239067725895,-19.459904189486476,49.741354053198734,1.0
17.74,-0.25272426582774826,-0.2153976171444412,0.8646233472097535,26.651829932155593,31.058377692368826,40.344887486175566,1.0
17.76,0.028888126936016306,0.20350935526206193,1.1703745927289873,37.67902812360188,-39.69567189086604,42.794626021413976,1.0
17.78,-0.03076272933645513,-0.1803947994728854,1.0331139100899507,-48.60594531805461,-43.482922828877605,15.637512441970259,1.0
17.8,0.3190413530676799,-0.10911453507931315,1.1798002642393541,-44.245099541920794,38.84574168220642,15.649701536539698,1.0
17.82,-0.10883253772796977,0.142862508128357,1.1655918660941988,38.233296144645706,31.41352701188077,30.324958971201855,1.0
17.84,-0.16197571635106828,0.037360277177232164,0.9424105778210791,-34.67604454585811,-18.54321382665351,4.992812603141651,1.0
17.86,-0.3291039459339708,-0.1040229155371224,1.0878569484418754,-15.039532088647434,0.9415296903923225,-12.65148155940533,1.0
17.88,-0.2089077873153689,-0.14519651736094585,0.9708062728836867,9.26205377749932,-35.1919130708765,38.33106275234284,1.0
17.9,-0.12374515000843546,0.33282085050794685,0.833017655231593,-2.938642593663533,-17.826913526294952,25.775713995521173,1.0
17.92,0.029869769978864764,0.04317614331893126,0.8869268560168965,1.1155296179070113,-38.721023240695956,-15.759973769674732,1.0
17.94,0.25491214811588425,0.13738229560269988,0.822563771408445,-17.002238690912797,-4.051651603834067,-51.911893179425356,1.0
17.96,0.07289551945544699,0.06267521839305518,0.9685095759670653,19.791840543632382,-17.88102034498473,-5.6365995404971745,1.0
17.98,0.056444330511246144,-0.176178905482345,0.8232559579532208,8.467345244577817,-7.05390533963126,22.923042342996943,1.0
18.0,-0.13040929792656236,0.2029101300863975,0.8937447579460204,-32.79255779023379,9.935209803110968,33.79713276441627,1.0
18.02,-0.10468225821124616,0.08111085195775516,1.1454158762062152,38.25587698777028,7.745766117162005,-49.95744703639453,1.0
18.04,-0.21596490119847866,-0.26168647941640955,0.8729555605428498,12.232937727662135,-41.063153751067716,-38.836040749099226,1.0
18.06,0.016506950410848098,-0.09987761991759538,1.040423056060754,15.38304792576361,40.447542303609566,33.044803102102684,1.0
18.08,-0.1412513167528595,0.32036485024963207,0.8390523124248009,-30.478409630657033,-50.33625548665388,-13.48150195478281,1.0
18.1,-0.2419844254172513,-0.20002187805037785,0.8519417595796002,-17.571640330142177,-48.450476085983965,43.834707343898614,1.0
18.12,-0.07248334736335801,0.07737369982930474,1.1861926085037835,-33.46841809613138,-28.58711561020708,32.149554419121266,1.0
18.14,-0.05902894390276503,0.2140028515723029,0.6829905452137481,-38.84169297047993,-1.8325696479207136,-39.51904424232233,1.0
18.16,-0.09181239708716868,0.03361874914571082,0.9189078798215337,37.88628414875201,-33.051188685735966,-12.666786135474855,1.0
18.18,0.3427799874008791,0.15205128654565178,0.9394031601959971,9.888168852394571,-17.74604360049552,-16.03910482107091,1.0
18.2,-0.002917214524863411,0.02232645977090192,1.0945176288882787,-12.768852426831748,53.260043950478035,-38.52005304799759,1.0
18.22,-0.1353159043176961,-0.01956451206862904,1.1909464894189696,-30.304801355553927,13.76087826090866,28.456299544908237,1.0
18.24,0.19642555187778565,0.038380374779098295,1.075263808317617,-25.20293409299808,-53.382719445087915,-24.274713163368038,1.0
18.26,0.28589793837140776,-0.31892496383884605,1.0910000546737257,22.783571266963406,-14.99850787821269,-7.475649970692253,1.0
18.28,0.29235716094968683,0.06406897240249097,0.8389255591408862,-43.27488924718538,47.85277975741066,20.989893101501046,1.0
18.3,-0.06064217855760137,-0.10004247270802459,0.8868169262990293,-34.45365802075653,28.29499467084154,-35.68548816128093,1.0
18.32,-0.1435668666711951,0.2518239329221893,0.9356909211161804,6.559639607181605,-39.919273365281555,-20.064221931165967,1.0
18.34,-0.1457335867566478,-0.16874515739139173,0.8618971997234022,-40.58002069728172,4.5159370607247915,11.085028874243626,1.0
18.36,0.2051346197020524,0.10893233094746253,0.9148367338625196,28.08947433805059,-40.95129299367918,23.08432288741672,1.0
18.38,-0.17312246238607581,0.13777222761339064,0.8986485119517199,43.235057110873804,-25.342586740765938,-28.380281159919697,1.0
18.4,-0.16864965619471162,-0.18714557358616235,0.9705578381668285,-45.134581267532404,-36.51790280800645,29.592148362431892,1.0
18.42,0.05933627382684589,-0.2959794978136009,1.0813817962371621,-34.87496408684194,39.61535258772794,48.313384712389166,1.0
18.44,0.14506704474870286,0.04538571623182812,0.7704634123173392,1.3978571609864456,-20.47370489417738,-18.515287480238108,1.0
18.46,-0.06166201214841055,-0.18302400001955144,1.1686751851541817,12.937082423824796,32.120521830248336,-43.025740480970626,1.0
18.48,-0.16307792925409803,0.13179766900403814,1.1735336214278806,34.95562778725609,-44.55176098209541,9.46106166022575,1.0
18.5,0.22538254534666427,-0.13595292520064556,0.8773040865551893,-24.247771550340744,36.17357694584523,40.37706673974204,1.0
18.52,-0.14261987179168895,-0.2982899504223672,1.089379695041654,34.44840879947908,37.30893942519967,13.003244183129762,1.0
18.54,0.06501392542127808,-0.19327730384877473,1.0856161297828189,-23.728577968491695,55.5387570771615,-41.51134093076195,1.0
18.56,0.14225189649456713,-0.16829467027871955,0.8130297910320419,-28.93364524484945,-54.9790123838664,-7.501617896791458,1.0
18.58,-0.05520266987240513,-0.2618732516384655,1.1776532174196879,-18.833244440481465,43.56552425634525,-5.466022731832245,1.0
18.6,-0.06973294018649373,0.11791262530604311,1.1135723635679753,-19.546903014721174,26.315983573399656,0.9308260870475039,1.0
18.62,-0.09780610790958968,0.12715347675804614,1.0232803510775992,-6.068919917533522,8.59046032687424,-15.534323007472068,1.0
18.64,-0.09648689316221343,-0.22576391197079704,0.9119529251315572,-18.22364279955862,-8.40328729036321,49.767632187174556,1.0
18.66,0.12846749729718668,0.250901284643755,1.1593101429976207,-2.512070457232329,-17.79184809585807,-31.22968985832632,1.0
18.68,-0.07381434880309162,-0.10041319390493014,0.8711838738620048,-9.214660835809047,10.836315371232416,10.522014971718267,1.0
18.7,-0.03737788816724511,0.027744515014455073,1.0791869218785872,55.73415609397842,-45.784614387840755,23.085662781290445,1.0
18.72,-0.22875821201478744,-0.10521386645456737,1.0377001188840356,-20.0232374019129,40.44513840377572,35.93001075134691,1.0
18.74,-0.12512073349763964,-0.20716152016429368,1.0935425142699344,-13.533151910789378,24.57928368231042,-27.980559993624837,1.0
18.76,0.11315463233716784,-0.13996716333812692,1.2232367390943912,-12.481129364609552,-34.44948675826752,6.0121054696754594,1.0
18.78,0.31304241167067803,-0.22895449925173011,1.0301162836688769,-24.202337792403505,-43.690287827510424,-46.111260445189195,1.0
18.8,-0.2977329516779297,0.1288450695603404,0.9639900176978694,19.63557055667576,-31.154133689292976,6.242786023512384,1.0
18.82,-0.31514749421933763,0.15017222963536422,0.9634577208505278,8.361510890492916,-22.34210993530469,27.03973120495876,1.0
18.84,0.2038760269334075,-0.06838448598363447,0.869318305810248,10.950721298033974,0.5797523917597438,16.06643358648695,1.0
18.86,-0.29239826098276683,-0.202760828269871,1.224256498319036,3.6881719710829532,-19.876400768934452,-46.118457017863726,1.0
18.88,0.20005699366889376,0.23505142441158994,1.1567731234241898,3.7205151394542284,-40.07790996414384,30.207546814144173,1.0
18.9,-0.29717078331095736,0.02603454507682639,0.9685813974780433,-30.60877326275962,3.5475075608259115,7.825563374551367,1.0
18.92,0.11910556098344992,0.06785975378433012,0.8672512680925948,32.767104713376206,-24.658514507068517,21.748144679066474,1.0
18.94,-0.06484045987815001,0.01734506619385604,1.0267889242870074,-8.12340736201202,51.51115706396729,-26.833294117179584,1.0
18.96,-0.09504393919983153,-0.3024296585932124,0.9374509686482089,31.77372503548678,-16.630294449894176,-34.831955819629435,1.0
18.98,-0.20921378010870806,0.08619336526979157,0.9394775999469642,-26.157790486288928,-10.777901720622387,11.721052102371257,1.0
19.0,0.10889372732649637,-0.04821874631854835,0.9503908918140616,-11.083233455237783,-8.113888188504905,-44.70518878900473,1.0
19.02,0.10668576528697639,-0.0012887040276905268,0.8264296066247128,20.840319311551823,-32.74918971061672,6.696445935191658,1.0
19.04,0.0727362010412626,-0.3163790357346588,0.9901262662200191,2.1014499947109377,-35.61567598445102,2.876843574445517,1.0
19.06,0.1759959817273677,-0.2039092160391707,0.9391767496255115,-51.75355413662151,28.61872073877908,-2.70651905226912,1.0
19.08,0.09869390401663682,0.17981611775330358,1.1694639795848676,-49.05838430622463,24.078090603402618,25.690078858759854,1.0
